resp_fMRI.keys, resp_fMRI.rt, respBlockInstructions.keys, respBlockInstructions.rt, construal_resp.keys, construal_resp.rt, resp_trial.keys, resp_trial.rt, fMRILp.thisRepN, fMRILp.thisTrialN, fMRILp.thisN, fMRILp.thisIndex, instructionLoop.thisRepN, instructionLoop.thisTrialN, instructionLoop.thisN, instructionLoop.thisIndex, blocks.thisRepN, blocks.thisTrialN, blocks.thisN, blocks.thisIndex, Subject, Trial, SSonLorR, RT, startingK, endingK, TrialStart, ITI, choiceUp, choiceMade, TrialOver, SSamount, LLamount, Condition, Choice, SSdelay, LLdelay, salienceCondition, day, runid, TaskInterval, RewardTrial, (21, 'RewardTrial'), Construal_QuestionText, Construal_AnswerText, Construal_Condition, construal_trialUp, construal_trialComplete, trials_set1.thisRepN, trials_set1.thisTrialN, trials_set1.thisN, trials_set1.thisIndex, participant, session, run, designDir, k_val, date, expName, frameRate
5, 4.647999999999996, 1, 14.497000000000014, 1, 1.3019999999999925, , , , , , , , , , , 0, -1, -1, 0, 2001, 1, 2, 3.537000000000006, 0.01, 0.007498942093324559, , 1.20481235412, 25.161, 28.697000000000003, , 17.684210526315788, 32, 1, , 5, 90, 0, 1, 1, 0.589679879049, 0, 1, Why avoid diseases?,  Live a long life., 3, 20.88900000000001, 23.944000000000017, 0, 0, 0, 0, 2001, 1, 1, fmri_v120180206140744, 0.01, Tue Feb 06 2018 15:30:46 GMT-0800 (PST), stroop, 60
, , , , 1, 1.7009999999999934, , , , , , , , , , , 0, -1, -1, 0, 2001, 2, 2, 5.0730000000000075, 0.007498942093324559, 0.005623413251903492, , 2.7970225496, 37.757000000000005, 42.83000000000001, , 19.2024861635296, 31, 1, , 5, 90, 0, 1, 1, 1.43243049146, 0, 1, Why use a comb?,  Write a song., 1, 31.5, 34.95400000000001, 0, 1, 1, 1, 2001, 1, 1, fmri_v120180206140744, 0.01, Tue Feb 06 2018 15:30:46 GMT-0800 (PST), stroop, 60
, , , , 2, 1.625, , , , , , , , , , , 0, -1, -1, 0, 2001, 3, 2, 2.453000000000003, 0.005623413251903492, 0.004216965034285824, , 2.42653210372, 51.072, 53.525000000000006, , 14.335273409826723, 21, 1, , 5, 90, 0, 1, 1, 0.514241655572, 0, 1, How to prepare meals?,  Follow recipes., 4, 45.26600000000002, 48.643, 0, 2, 2, 2, 2001, 1, 1, fmri_v120180206140744, 0.01, Tue Feb 06 2018 15:30:46 GMT-0800 (PST), stroop, 60
, , , , 1, 2.218999999999994, , , , , , , , , , , 0, -1, -1, 0, 2001, 4, 2, 2.8029999999999973, 0.004216965034285824, 0.0031622776601683807, , 1.61379915631, 60.733000000000004, 63.536, , 28.866642278554593, 39, 1, , 5, 90, 0, 1, 1, 0.542466384375, 0, 1, How to avoid boredom?,  Entertain oneself., 6, 55.143, 59.11500000000001, 0, 3, 3, 3, 2001, 1, 1, fmri_v120180206140744, 0.01, Tue Feb 06 2018 15:30:46 GMT-0800 (PST), stroop, 60
, , , , 1, 1.0050000000000239, , , , , , , , , , , 0, -1, -1, 0, 2001, 5, 1, 3.3870000000000005, 0.0031622776601683807, 0.0023713737056616562, , 2.51110985225, 71.32900000000001, 74.71600000000001, , 23.72273336950014, 30, 1, , 5, 90, 0, 1, 1, 1.87255628823, 0, 1, Why make breakfast?,  Satisfy hunger., 2, 66.05600000000001, 68.81300000000002, 0, 4, 4, 4, 2001, 1, 1, fmri_v120180206140744, 0.01, Tue Feb 06 2018 15:30:46 GMT-0800 (PST), stroop, 60
, , , , 1, 2.1019999999999754, , , , , , , , , , , 0, -1, -1, 0, 2001, 6, 1, 2.4529999999999745, 0.0023713737056616562, 0.0017782794100389236, , 2.95967892468, 84.51000000000002, 86.963, , 24.182691334641802, 29, 1, , 5, 90, 0, 1, 1, 0.867849393442, 0, 1, How to write an email?,  Open a browser., 5, 77.686, 81.53999999999999, 0, 5, 5, 5, 2001, 1, 1, fmri_v120180206140744, 0.01, Tue Feb 06 2018 15:30:46 GMT-0800 (PST), stroop, 60
, , , , 1, 1.884999999999991, , , , , , , , , , , 0, -1, -1, 0, 2001, 7, 1, 3.469999999999999, 0.0017782794100389236, 0.0013335214321633247, , 0.72176622325, 92.06900000000002, 95.53900000000002, , 21.742502861703667, 25, 1, , 5, 90, 0, 1, 1, 0.706760519699, 0, 1, Why use a brush?,  Paint a picture., 1, 87.697, 91.334, 0, 6, 6, 6, 2001, 1, 1, fmri_v120180206140744, 0.01, Tue Feb 06 2018 15:30:46 GMT-0800 (PST), stroop, 60
, , , , 1, 0.5389999999999873, , , , , , , , , , , 0, -1, -1, 0, 2001, 8, 1, 2.5860000000000127, 0.0013335214321633247, 0.0010000000000000007, , 0.910383930937, 99.661, 102.24700000000001, , 21.5711226755315, 24, 1, , 5, 90, 0, 1, 1, 1.18849127932, 0, 1, Why make a list?,  Plan ahead., 2, 96.457, 98.749, 0, 7, 7, 7, 2001, 1, 1, fmri_v120180206140744, 0.01, Tue Feb 06 2018 15:30:46 GMT-0800 (PST), stroop, 60
, , , , 1, 0.8810000000000002, , , , , , , , , , , 0, -1, -1, 0, 2001, 9, 2, 3.369999999999976, 0.0010000000000000007, 0.0007498942093324564, , 1.64940819105, 108.18700000000001, 111.55699999999999, , 20.284403669724767, 22, 1, , 5, 90, 0, 1, 1, 1.45291023269, 0, 1, Why make a purchase?,  Satisfy a need., 3, 103.899, 106.535, 0, 8, 8, 8, 2001, 1, 1, fmri_v120180206140744, 0.01, Tue Feb 06 2018 15:30:46 GMT-0800 (PST), stroop, 60
, , , , 1, 0.6329999999999814, , , , , , , , , , , 0, -1, -1, 0, 2001, 10, 1, 2.920000000000016, 0.0007498942093324564, 0.0005623413251903495, , 3.21634443617, 120.38399999999999, 123.304, , 21.62664519421461, 23, 1, , 5, 90, 0, 1, 1, 1.10404251273, 0, 1, How to save money?,  Clip coupons., 5, 114.77799999999999, 117.16400000000002, 0, 9, 9, 9, 2001, 1, 1, fmri_v120180206140744, 0.01, Tue Feb 06 2018 15:30:46 GMT-0800 (PST), stroop, 60
, , , , 1, 0.8159999999999741, , , , , , , , , , , 0, -1, -1, 0, 2001, 11, 2, 3.170000000000016, 0.0005623413251903495, 0.0007498942093324564, , 1.81075854656, 129.511, 132.681, , 34.36212935626355, 36, 1, , 5, 90, 0, 1, 1, 0.542793300246, 0, 1, How to show creativity?,  Make art., 6, 125.12300000000002, 127.69199999999998, 0, 10, 10, 10, 2001, 1, 1, fmri_v120180206140744, 0.01, Tue Feb 06 2018 15:30:46 GMT-0800 (PST), stroop, 60
, , , , 1, 0.8499999999999659, , , , , , , , , , , 0, -1, -1, 0, 2001, 12, 2, 2.269999999999982, 0.0007498942093324564, 0.0005623413251903495, , 2.96110198501, 141.22400000000002, 143.494, , 31.02953440909053, 33, 1, , 5, 90, 0, 1, 1, 0.666182500891, 0, 1, How to watch television?,  Use a remote., 4, 135.65099999999998, 138.254, 0, 11, 11, 11, 2001, 1, 1, fmri_v120180206140744, 0.01, Tue Feb 06 2018 15:30:46 GMT-0800 (PST), stroop, 60
, , , , 1, 1.3840000000000146, , , , , , , , , , , 0, -1, -1, 0, 2001, 13, 1, 3.288000000000011, 0.0005623413251903495, 0.0007498942093324564, , 1.9290575844, 150.501, 153.78900000000002, , 19.09007186459086, 20, 1, , 5, 90, 0, 1, 1, 0.834103862466, 0, 1, Why read articles?,  Gain knowledge., 2, 145.429, 148.566, 0, 12, 12, 12, 2001, 1, 1, fmri_v120180206140744, 0.01, Tue Feb 06 2018 15:30:46 GMT-0800 (PST), stroop, 60
, , , , 1, 1.0509999999999877, , , , , , , , , , , 0, -1, -1, 0, 2001, 14, 1, 5.256000000000029, 0.0007498942093324564, 0.0010000000000000007, , 0.509487311714, 157.626, 162.88200000000003, , 34.790690095040894, 37, 1, , 5, 90, 0, 1, 1, 0.776921501173, 0, 1, How to express doubt?,  Use scissors., 5, 154.306, 157.109, 0, 13, 13, 13, 2001, 1, 1, fmri_v120180206140744, 0.01, Tue Feb 06 2018 15:30:46 GMT-0800 (PST), stroop, 60
, , , , 1, 0.9839999999999804, , , , , , , , , , , 0, -1, -1, 0, 2001, 15, 1, 2.5529999999999973, 0.0010000000000000007, 0.001333521432163325, , 1.09317910432, 167.821, 170.374, , 24.894495412844034, 27, 1, , 5, 90, 0, 1, 1, 1.65036529961, 0, 1, How to write a check?,  Sign ones name., 4, 163.984, 166.72, 0, 14, 14, 14, 2001, 1, 1, fmri_v120180206140744, 0.01, Tue Feb 06 2018 15:30:46 GMT-0800 (PST), stroop, 60
, , , , 2, 1.2510000000000332, , , , , , , , , , , 0, -1, -1, 0, 2001, 16, 1, 3.8380000000000223, 0.001333521432163325, 0.0017782794100389238, , 1.32940224182, 176.047, 179.88500000000002, , 35.95187112588584, 40, 1, , 5, 90, 0, 1, 1, 0.779017314723, 0, 1, How to satisfy a need?,  Make a purchase., 6, 171.70900000000003, 174.71200000000002, 0, 15, 15, 15, 2001, 1, 1, fmri_v120180206140744, 0.01, Tue Feb 06 2018 15:30:46 GMT-0800 (PST), stroop, 60
, , , , 1, 0.8179999999999836, , , , , , , , , , , 0, -1, -1, 0, 2001, 17, 2, 3.938000000000045, 0.0017782794100389238, 0.0023713737056616567, , 0.736631060556, 183.956, 187.89400000000003, , 33.04860434978958, 38, 1, , 5, 90, 0, 1, 1, 2.04865161569, 0, 1, Why write an email?,  Send a message., 3, 180.636, 183.206, 0, 16, 16, 16, 2001, 1, 1, fmri_v120180206140744, 0.01, Tue Feb 06 2018 15:30:46 GMT-0800 (PST), stroop, 60
, , , , 1, 1.1509999999999536, , , , , , , , , , , 0, -1, -1, 0, 2001, 18, 2, 3.4710000000000036, 0.0023713737056616567, 0.003162277660168381, , 0.813092231668, 192.432, 195.903, , 23.3488054265507, 28, 1, , 5, 90, 0, 1, 1, 0.716657053627, 0, 1, Why clap hands?,  Give applause., 1, 188.71200000000002, 191.61499999999998, 0, 17, 17, 17, 2001, 1, 1, fmri_v120180206140744, 0.01, Tue Feb 06 2018 15:30:46 GMT-0800 (PST), stroop, 60
, , , , 1, 1.4909999999999854, , , , , , , , , , , 0, -1, -1, 0, 2001, 19, 1, 2.886000000000024, 0.003162277660168381, 0.004216965034285825, , 1.76871905123, 202.71099999999998, 205.597, , 20.55970225356679, 26, 1, , 5, 90, 0, 1, 1, 0.892095696708, 0, 1, Why stir ingredients?,  Mix a cocktail., 1, 197.68800000000002, 200.931, 0, 18, 18, 18, 2001, 1, 1, fmri_v120180206140744, 0.01, Tue Feb 06 2018 15:30:46 GMT-0800 (PST), stroop, 60
, , , , 2, 1.7340000000000373, , , , , , , , , , , 0, -1, -1, 0, 2001, 20, 1, 2.836999999999989, 0.004216965034285825, 0.005623413251903494, , 1.05830782425, 211.22, 214.057, , 25.90596101921566, 35, 1, , 5, 90, 0, 1, 1, 1.64750276632, 0, 1, How to write a song?,  Play piano., 4, 206.665, 210.15200000000002, 0, 19, 19, 19, 2001, 1, 1, fmri_v120180206140744, 0.01, Tue Feb 06 2018 15:30:46 GMT-0800 (PST), stroop, 60
, , , , 1, 1.1510000000000105, , , , , , , , , , , 0, -1, -1, 0, 2001, 21, 1, 3.7040000000000077, 0.005623413251903494, 0.004216965034285825, , 1.96222242531, 220.898, 224.602, , 25.940018551115017, 38, 1, , 5, 90, 0, 1, 1, 1.71309159935, 0, 1, How to plan ahead?,  Make a list., 5, 216.025, 218.929, 0, 20, 20, 20, 2001, 1, 1, fmri_v120180206140744, 0.01, Tue Feb 06 2018 15:30:46 GMT-0800 (PST), stroop, 60
, , , , 1, 0.9510000000000218, , , , , , , , , , , 0, -1, -1, 0, 2001, 22, 2, 3.0529999999999973, 0.004216965034285825, 0.003162277660168381, , 4.68264953191, 236.68300000000002, 239.73600000000002, , 29.606812593389325, 40, 1, , 5, 90, 0, 1, 1, 0.908468876406, 0, 1, How to live a long life?,  Avoid diseases., 6, 229.29100000000003, 231.994, 0, 21, 21, 21, 2001, 1, 1, fmri_v120180206140744, 0.01, Tue Feb 06 2018 15:30:46 GMT-0800 (PST), stroop, 60
, , , , 1, 1.4680000000000177, , , , , , , , , , , 0, -1, -1, 0, 2001, 23, 1, 4.723000000000013, 0.003162277660168381, 0.0023713737056616567, , 1.38534255319, 245.76000000000002, 250.482, , 17.396671137633437, 22, 1, , 5, 90, 0, 1, 1, 0.609919012343, 0, 1, Why make a phone call?,  Contact a friend., 2, 241.138, 244.35800000000003, 0, 22, 22, 22, 2001, 1, 1, fmri_v120180206140744, 0.01, Tue Feb 06 2018 15:30:46 GMT-0800 (PST), stroop, 60
, , , , 1, 1.117999999999995, , , , , , , , , , , 0, -1, -1, 0, 2001, 24, 2, 3.8710000000000377, 0.0023713737056616567, 0.001778279410038924, , 2.62381965276, 258.624, 262.495, , 20.013261794186313, 24, 1, , 5, 90, 0, 1, 1, 0.705470545915, 0, 1, Why show courtesy?,  Make a friend., 3, 253.11800000000002, 255.98800000000003, 0, 23, 23, 23, 2001, 1, 1, fmri_v120180206140744, 0.01, Tue Feb 06 2018 15:30:46 GMT-0800 (PST), stroop, 60
, , , , 1, 1.266999999999996, , , , , , , , , , , 0, -1, -1, 0, 2001, 25, 2, 3.4530000000000314, 0.001778279410038924, 0.0013335214321633251, , 4.77730861866, 275.09299999999996, 278.54600000000005, , 32.178904235321426, 37, 1, , 5, 90, 0, 1, 1, 0.710273287851, 0, 1, How to make breakfast?,  Crack eggs., 4, 267.284, 270.304, 0, 24, 24, 24, 2001, 1, 1, fmri_v120180206140744, 0.01, Tue Feb 06 2018 15:30:46 GMT-0800 (PST), stroop, 60
, , , , 1, 1.41700000000003, , , , , , , , , , , 0, -1, -1, 0, 2001, 26, 2, 4.689000000000021, 0.0013335214321633251, 0.0017782794100389243, , 3.93359630601, 289.59299999999996, 294.28100000000006, , 26.963903344414376, 30, 1, , 5, 90, 0, 1, 1, 0.534360139593, 0, 1, Why reduce pain?,  Feel well., 3, 282.48400000000004, 285.655, 0, 25, 25, 25, 2001, 1, 1, fmri_v120180206140744, 0.01, Tue Feb 06 2018 15:30:46 GMT-0800 (PST), stroop, 60
, , , , 1, 0.8999999999999773, , , , , , , , , , , 0, -1, -1, 0, 2001, 27, 1, 3.2860000000000014, 0.0017782794100389243, 0.002371373705661657, , 2.74035878969, 302.44100000000003, 305.727, , 26.960703548512548, 31, 1, , 5, 90, 0, 1, 1, 1.41825549831, 0, 1, Why kill germs?,  Avoid diseases., 2, 297.034, 299.687, 0, 26, 26, 26, 2001, 1, 1, fmri_v120180206140744, 0.01, Tue Feb 06 2018 15:30:46 GMT-0800 (PST), stroop, 60
, , , , 2, 1.1669999999999732, , , , , , , , , , , 0, -1, -1, 0, 2001, 28, 1, 4.0049999999999955, 0.002371373705661657, 0.0031622776601683816, , 0.708029370292, 310.082, 314.087, , 20.84714770227741, 25, 1, , 5, 90, 0, 1, 1, 0.948539210497, 0, 1, How to show ambition?,  Serve alcohol., 5, 306.44500000000005, 309.365, 0, 27, 27, 27, 2001, 1, 1, fmri_v120180206140744, 0.01, Tue Feb 06 2018 15:30:46 GMT-0800 (PST), stroop, 60
, , , , 1, 1.037999999999954, , , , , , , , , , , 0, -1, -1, 0, 2001, 29, 1, 2.886000000000024, 0.0031622776601683816, 0.002371373705661657, , 1.25417893721, 319.40999999999997, 322.29600000000005, , 27.676522264416832, 35, 1, , 5, 90, 0, 1, 1, 0.842156772676, 0, 1, How to spread knowledge?,  Teach others., 6, 315.355, 318.14599999999996, 0, 28, 28, 28, 2001, 1, 1, fmri_v120180206140744, 0.01, Tue Feb 06 2018 15:30:46 GMT-0800 (PST), stroop, 60
, , , , 2, 2.151999999999987, , , , , , , , , , , 0, -1, -1, 0, 2001, 30, 2, 4.63900000000001, 0.002371373705661657, 0.0031622776601683816, , 1.86461094948, 329.938, 334.577, , 19.17937588609522, 23, 1, , 5, 90, 0, 1, 1, 0.749145438, 0, 1, Why take aspirin?,  Serve alcohol., 1, 324.16499999999996, 328.06899999999996, 0, 29, 29, 29, 2001, 1, 1, fmri_v120180206140744, 0.01, Tue Feb 06 2018 15:30:46 GMT-0800 (PST), stroop, 60
, , , , 1, 1.1170000000000186, , , , , , , , , , , 0, -1, -1, 0, 2001, 31, 2, 4.872000000000014, 0.0031622776601683816, 0.0042169650342858255, , 1.89136587888, 341.251, 346.12300000000005, , 15.815155579666762, 20, 1, , 5, 90, 0, 1, 1, 0.687087589428, 0, 1, Why enter a classroom?,  Attend a school., 2, 336.47900000000004, 339.34900000000005, 0, 30, 30, 30, 2001, 1, 1, fmri_v120180206140744, 0.01, Tue Feb 06 2018 15:30:46 GMT-0800 (PST), stroop, 60
, , , , 2, 1.5349999999999682, , , , , , , , , , , 0, -1, -1, 0, 2001, 32, 2, 4.555000000000007, 0.0042169650342858255, 0.003162277660168382, , 2.57640331811, 354.58299999999997, 359.13800000000003, , 25.165790704380925, 34, 1, , 5, 90, 0, 1, 1, 1.00359081118, 0, 1, Why build muscles?,  Show humility., 3, 348.71000000000004, 351.99699999999996, 0, 31, 31, 31, 2001, 1, 1, fmri_v120180206140744, 0.01, Tue Feb 06 2018 15:30:46 GMT-0800 (PST), stroop, 60
