resp_fMRI.keys, resp_fMRI.rt, construal_resp.keys, construal_resp.rt, resp_trial.keys, resp_trial.rt, instructionLoop.thisRepN, instructionLoop.thisTrialN, instructionLoop.thisN, instructionLoop.thisIndex, blocks.thisRepN, blocks.thisTrialN, blocks.thisN, blocks.thisIndex, Subject, Trial, SSonLorR, RT, startingK, endingK, TrialStart, ITI, choiceUp, choiceMade, TrialOver, SSamount, LLamount, Condition, Choice, SSdelay, LLdelay, salienceCondition, day, runid, TaskInterval, RewardTrialRanked, Construal_QuestionText, Construal_AnswerText, Construal_Condition, construal_trialUp, construal_trialComplete, trials_set1.thisRepN, trials_set1.thisTrialN, trials_set1.thisN, trials_set1.thisIndex, participant, session, run, k_val, designDir, total_time_limit, date, expName, frameRate, finish_screen_end_response.keys, finish_screen_end_response.rt, instructionLoop.thisRepN, instructionLoop.thisTrialN, instructionLoop.thisN, instructionLoop.thisIndex, blocks.thisRepN, blocks.thisTrialN, blocks.thisN, blocks.thisIndex, Subject, Trial, SSonLorR, RT, startingK, endingK, TrialStart, ITI, choiceUp, choiceMade, TrialOver, SSamount, LLamount, Condition, Choice, SSdelay, LLdelay, salienceCondition, day, runid, TaskInterval, RewardTrialRanked, Construal_QuestionText, Construal_AnswerText, Construal_Condition, construal_trialUp, construal_trialComplete, trials_set1.thisRepN, trials_set1.thisTrialN, trials_set1.thisN, trials_set1.thisIndex, participant, session, run, k_val, designDir, total_time_limit, date, expName, frameRate
5, 12.25, 1, 0.8999999999999773, , , , , , , 0, -1, -1, 0, 2001, 1, 2, 6.02000000000001, 0.01, 0.01, , 1.54924207739, 16.287999999999982, 22.307999999999993, , 25, 30, 1, , 5, 26, 1, 3, 2, 1.94310362742, 52, How to reduce pain?,  Consume medicine., 5, 12.069999999999993, 14.720999999999975, 0, 0, 0, 0, 2001, 3, 2, 0.01, fmri_v320180222005112, 60, Thu Feb 22 2018 08:24:53 GMT-0800 (PST), stroop, 60, , , , , , , 0, -1, -1, 0, 2001, 1, 2, 6.02000000000001, 0.01, 0.01, , 1.54924207739, 16.287999999999982, 22.307999999999993, , 25, 30, 1, , 5, 26, 1, 3, 2, 1.94310362742, 52, How to reduce pain?,  Consume medicine., 5, 12.069999999999993, 14.720999999999975, 0, 0, 0, 0, 2001, 3, 2, 0.01, fmri_v320180222005112, 60, Thu Feb 22 2018 08:24:53 GMT-0800 (PST), stroop, 60
, , , , , , , , , , 0, -1, -1, 0, 2001, 2, 1, 6.0020000000000095, 0.01, 0.01, , 1.52183192815, 29.377999999999986, 35.381, , 25, 30, 1, , 1, 21.199999999999996, 1, 3, 2, 2.31625146183, 0, How to provide food?,  Prepare meals., 5, 23.843999999999994, 27.843999999999994, 0, 1, 1, 1, 2001, 3, 2, 0.01, fmri_v320180222005112, 60, Thu Feb 22 2018 08:24:53 GMT-0800 (PST), stroop, 60, , , , , , , 0, -1, -1, 0, 2001, 2, 1, 6.0020000000000095, 0.01, 0.01, , 1.52183192815, 29.377999999999986, 35.381, , 25, 30, 1, , 1, 21.199999999999996, 1, 3, 2, 2.31625146183, 0, How to provide food?,  Prepare meals., 5, 23.843999999999994, 27.843999999999994, 0, 1, 1, 1, 2001, 3, 2, 0.01, fmri_v320180222005112, 60, Thu Feb 22 2018 08:24:53 GMT-0800 (PST), stroop, 60
, , , , , , , , , , 0, -1, -1, 0, 2001, 3, 1, 6.001999999999981, 0.01, 0.01, , 2.95840062099, 45.322, 51.323999999999984, , 25, 30, 1, , 2, 22.40000000000002, 1, 3, 2, 1.03134380205, 13, How to show intellect?,  Share ideas., 6, 38.349999999999994, 42.35299999999998, 0, 2, 2, 2, 2001, 3, 2, 0.01, fmri_v320180222005112, 60, Thu Feb 22 2018 08:24:53 GMT-0800 (PST), stroop, 60, , , , , , , 0, -1, -1, 0, 2001, 3, 1, 6.001999999999981, 0.01, 0.01, , 2.95840062099, 45.322, 51.323999999999984, , 25, 30, 1, , 2, 22.40000000000002, 1, 3, 2, 1.03134380205, 13, How to show intellect?,  Share ideas., 6, 38.349999999999994, 42.35299999999998, 0, 2, 2, 2, 2001, 3, 2, 0.01, fmri_v320180222005112, 60, Thu Feb 22 2018 08:24:53 GMT-0800 (PST), stroop, 60
, , , , , , , , , , 0, -1, -1, 0, 2001, 4, 2, 0.0010000000000047748, 0.01, 0.01, , 1.6901759263, 51.329999999999984, 51.341999999999985, , 25, 30, 1, , 6, 27.200000000000003, 1, 3, 2, 1.30694669819, 47, How to feel secure?,  Save money., 6, 51.32599999999999, 51.32599999999999, 0, 3, 3, 3, 2001, 3, 2, 0.01, fmri_v320180222005112, 60, Thu Feb 22 2018 08:24:53 GMT-0800 (PST), stroop, 60, , , , , , , 0, -1, -1, 0, 2001, 4, 2, 0.0010000000000047748, 0.01, 0.01, , 1.6901759263, 51.329999999999984, 51.341999999999985, , 25, 30, 1, , 6, 27.200000000000003, 1, 3, 2, 1.30694669819, 47, How to feel secure?,  Save money., 6, 51.32599999999999, 51.32599999999999, 0, 3, 3, 3, 2001, 3, 2, 0.01, fmri_v320180222005112, 60, Thu Feb 22 2018 08:24:53 GMT-0800 (PST), stroop, 60
, , , , , , , , , , 0, -1, -1, 0, 2001, 5, 2, 0, 0.01, 0.01, , 1.88555377546, 51.345, 51.349999999999994, , 25, 30, 1, , 3, 23.599999999999998, 1, 3, 2, 1.20592933567, 23, Why show intelligence?,  Impress others., 3, 51.34299999999999, 51.345, 0, 4, 4, 4, 2001, 3, 2, 0.01, fmri_v320180222005112, 60, Thu Feb 22 2018 08:24:53 GMT-0800 (PST), stroop, 60, , , , , , , 0, -1, -1, 0, 2001, 5, 2, 0, 0.01, 0.01, , 1.88555377546, 51.345, 51.349999999999994, , 25, 30, 1, , 3, 23.599999999999998, 1, 3, 2, 1.20592933567, 23, Why show intelligence?,  Impress others., 3, 51.34299999999999, 51.345, 0, 4, 4, 4, 2001, 3, 2, 0.01, fmri_v320180222005112, 60, Thu Feb 22 2018 08:24:53 GMT-0800 (PST), stroop, 60
, , , , , , , , , , 0, -1, -1, 0, 2001, 6, 2, 0, 0.01, 0.01, , 3.24579127294, 51.359999999999985, 51.363999999999976, , 25, 30, 1, , 9, 30.800000000000004, 1, 3, 2, 1.1847348671, 32, Why show courtesy?,  Make a friend., 3, 51.35299999999998, 51.35499999999999, 0, 5, 5, 5, 2001, 3, 2, 0.01, fmri_v320180222005112, 60, Thu Feb 22 2018 08:24:53 GMT-0800 (PST), stroop, 60, , , , , , , 0, -1, -1, 0, 2001, 6, 2, 0, 0.01, 0.01, , 3.24579127294, 51.359999999999985, 51.363999999999976, , 25, 30, 1, , 9, 30.800000000000004, 1, 3, 2, 1.1847348671, 32, Why show courtesy?,  Make a friend., 3, 51.35299999999998, 51.35499999999999, 0, 5, 5, 5, 2001, 3, 2, 0.01, fmri_v320180222005112, 60, Thu Feb 22 2018 08:24:53 GMT-0800 (PST), stroop, 60
, , , , , , , , , , 0, -1, -1, 0, 2001, 7, 1, 0, 0.01, 0.01, , 1.62963144906, 51.373999999999995, 51.383999999999986, , 25, 30, 1, , 4, 24.8, 1, 3, 2, 2.61885166558, 33, Why follow recipes?,  Prepare meals., 1, 51.367999999999995, 51.369, 0, 6, 6, 6, 2001, 3, 2, 0.01, fmri_v320180222005112, 60, Thu Feb 22 2018 08:24:53 GMT-0800 (PST), stroop, 60, , , , , , , 0, -1, -1, 0, 2001, 7, 1, 0, 0.01, 0.01, , 1.62963144906, 51.373999999999995, 51.383999999999986, , 25, 30, 1, , 4, 24.8, 1, 3, 2, 2.61885166558, 33, Why follow recipes?,  Prepare meals., 1, 51.367999999999995, 51.369, 0, 6, 6, 6, 2001, 3, 2, 0.01, fmri_v320180222005112, 60, Thu Feb 22 2018 08:24:53 GMT-0800 (PST), stroop, 60
, , , , , , , , , , 0, -1, -1, 0, 2001, 8, 2, 0.0010000000000047748, 0.01, 0.01, , 1.38036084358, 51.39499999999998, 51.40299999999999, , 25, 30, 1, , 7, 28.400000000000023, 1, 3, 2, 1.03846748528, 51, Why sign ones name?,  Write a check., 1, 51.387, 51.38899999999998, 0, 7, 7, 7, 2001, 3, 2, 0.01, fmri_v320180222005112, 60, Thu Feb 22 2018 08:24:53 GMT-0800 (PST), stroop, 60, , , , , , , 0, -1, -1, 0, 2001, 8, 2, 0.0010000000000047748, 0.01, 0.01, , 1.38036084358, 51.39499999999998, 51.40299999999999, , 25, 30, 1, , 7, 28.400000000000023, 1, 3, 2, 1.03846748528, 51, Why sign ones name?,  Write a check., 1, 51.387, 51.38899999999998, 0, 7, 7, 7, 2001, 3, 2, 0.01, fmri_v320180222005112, 60, Thu Feb 22 2018 08:24:53 GMT-0800 (PST), stroop, 60
, , , , , , , , , , 0, -1, -1, 0, 2001, 9, 1, 0, 0.01, 0.01, , 2.4464622709, 51.41199999999998, 51.417, , 25, 30, 1, , 7, 28.400000000000023, 1, 3, 2, 4.20626324261, 42, How to kill germs?,  Wash ones hands., 4, 51.40699999999998, 51.40899999999999, 0, 8, 8, 8, 2001, 3, 2, 0.01, fmri_v320180222005112, 60, Thu Feb 22 2018 08:24:53 GMT-0800 (PST), stroop, 60, , , , , , , 0, -1, -1, 0, 2001, 9, 1, 0, 0.01, 0.01, , 2.4464622709, 51.41199999999998, 51.417, , 25, 30, 1, , 7, 28.400000000000023, 1, 3, 2, 4.20626324261, 42, How to kill germs?,  Wash ones hands., 4, 51.40699999999998, 51.40899999999999, 0, 8, 8, 8, 2001, 3, 2, 0.01, fmri_v320180222005112, 60, Thu Feb 22 2018 08:24:53 GMT-0800 (PST), stroop, 60
, , , , , , , , , , 0, -1, -1, 0, 2001, 10, 1, 0, 0.01, 0.01, , 2.09354739298, 51.41999999999999, 51.422, , 25, 30, 1, , 8, 29.600000000000005, 1, 3, 2, 2.13751534389, 2, How to clip coupons?,  Cut paper., 4, 51.41799999999998, 51.41799999999998, 0, 9, 9, 9, 2001, 3, 2, 0.01, fmri_v320180222005112, 60, Thu Feb 22 2018 08:24:53 GMT-0800 (PST), stroop, 60, , , , , , , 0, -1, -1, 0, 2001, 10, 1, 0, 0.01, 0.01, , 2.09354739298, 51.41999999999999, 51.422, , 25, 30, 1, , 8, 29.600000000000005, 1, 3, 2, 2.13751534389, 2, How to clip coupons?,  Cut paper., 4, 51.41799999999998, 51.41799999999998, 0, 9, 9, 9, 2001, 3, 2, 0.01, fmri_v320180222005112, 60, Thu Feb 22 2018 08:24:53 GMT-0800 (PST), stroop, 60
, , , , , , , , , , 0, -1, -1, 0, 2001, 11, 1, 0, 0.01, 0.01, , 1.64434957419, 51.429, 51.434, , 25, 30, 1, , 5, 26, 1, 3, 2, 1.09766808752, 25, Why open a browser?,  Write an email., 2, 51.423, 51.42399999999998, 0, 10, 10, 10, 2001, 3, 2, 0.01, fmri_v320180222005112, 60, Thu Feb 22 2018 08:24:53 GMT-0800 (PST), stroop, 60, , , , , , , 0, -1, -1, 0, 2001, 11, 1, 0, 0.01, 0.01, , 1.64434957419, 51.429, 51.434, , 25, 30, 1, , 5, 26, 1, 3, 2, 1.09766808752, 25, Why open a browser?,  Write an email., 2, 51.423, 51.42399999999998, 0, 10, 10, 10, 2001, 3, 2, 0.01, fmri_v320180222005112, 60, Thu Feb 22 2018 08:24:53 GMT-0800 (PST), stroop, 60
, , , , , , , , , , 0, -1, -1, 0, 2001, 12, 1, 0, 0.01, 0.01, , 1.01001200374, 51.43899999999999, 51.44199999999998, , 25, 30, 1, , 1, 21.199999999999996, 1, 3, 2, 1.12717461659, 5, Why watch television?,  Show competence., 2, 51.43599999999998, 51.43699999999998, 0, 11, 11, 11, 2001, 3, 2, 0.01, fmri_v320180222005112, 60, Thu Feb 22 2018 08:24:53 GMT-0800 (PST), stroop, 60, , , , , , , 0, -1, -1, 0, 2001, 12, 1, 0, 0.01, 0.01, , 1.01001200374, 51.43899999999999, 51.44199999999998, , 25, 30, 1, , 1, 21.199999999999996, 1, 3, 2, 1.12717461659, 5, Why watch television?,  Show competence., 2, 51.43599999999998, 51.43699999999998, 0, 11, 11, 11, 2001, 3, 2, 0.01, fmri_v320180222005112, 60, Thu Feb 22 2018 08:24:53 GMT-0800 (PST), stroop, 60
, , , , , , , , , , 0, -1, -1, 0, 2001, 13, 2, 0, 0.01, 0.01, , 2.34633863528, 51.44499999999999, 51.447, , 25, 30, 1, , 4, 24.8, 1, 3, 2, 1.74520203893, 15, Why wash ones hands?,  Kill germs., 1, 51.442999999999984, 51.44399999999999, 0, 12, 12, 12, 2001, 3, 2, 0.01, fmri_v320180222005112, 60, Thu Feb 22 2018 08:24:53 GMT-0800 (PST), stroop, 60, , , , , , , 0, -1, -1, 0, 2001, 13, 2, 0, 0.01, 0.01, , 2.34633863528, 51.44499999999999, 51.447, , 25, 30, 1, , 4, 24.8, 1, 3, 2, 1.74520203893, 15, Why wash ones hands?,  Kill germs., 1, 51.442999999999984, 51.44399999999999, 0, 12, 12, 12, 2001, 3, 2, 0.01, fmri_v320180222005112, 60, Thu Feb 22 2018 08:24:53 GMT-0800 (PST), stroop, 60
, , , , , , , , , , 0, -1, -1, 0, 2001, 14, 1, 0, 0.01, 0.01, , 1.69391035962, 51.448999999999984, 51.458999999999975, , 25, 30, 1, , 3, 23.599999999999998, 1, 3, 2, 3.52229912452, 31, Why lift a glass?,  Drink wine., 1, 51.44799999999998, 51.44799999999998, 0, 13, 13, 13, 2001, 3, 2, 0.01, fmri_v320180222005112, 60, Thu Feb 22 2018 08:24:53 GMT-0800 (PST), stroop, 60, , , , , , , 0, -1, -1, 0, 2001, 14, 1, 0, 0.01, 0.01, , 1.69391035962, 51.448999999999984, 51.458999999999975, , 25, 30, 1, , 3, 23.599999999999998, 1, 3, 2, 3.52229912452, 31, Why lift a glass?,  Drink wine., 1, 51.44799999999998, 51.44799999999998, 0, 13, 13, 13, 2001, 3, 2, 0.01, fmri_v320180222005112, 60, Thu Feb 22 2018 08:24:53 GMT-0800 (PST), stroop, 60
, , , , , , , , , , 0, -1, -1, 0, 2001, 15, 1, 0, 0.01, 0.01, , 3.67700688624, 51.46599999999998, 51.46799999999999, , 25, 30, 1, , 9, 30.800000000000004, 1, 3, 2, 3.94071431728, 48, Why make a purchase?,  Satisfy a need., 3, 51.45999999999998, 51.460999999999984, 0, 14, 14, 14, 2001, 3, 2, 0.01, fmri_v320180222005112, 60, Thu Feb 22 2018 08:24:53 GMT-0800 (PST), stroop, 60, , , , , , , 0, -1, -1, 0, 2001, 15, 1, 0, 0.01, 0.01, , 3.67700688624, 51.46599999999998, 51.46799999999999, , 25, 30, 1, , 9, 30.800000000000004, 1, 3, 2, 3.94071431728, 48, Why make a purchase?,  Satisfy a need., 3, 51.45999999999998, 51.460999999999984, 0, 14, 14, 14, 2001, 3, 2, 0.01, fmri_v320180222005112, 60, Thu Feb 22 2018 08:24:53 GMT-0800 (PST), stroop, 60
, , , , , , , , , , 0, -1, -1, 0, 2001, 16, 2, 0, 0.01, 0.01, , 2.92468411878, 51.470999999999975, 51.47199999999998, , 25, 30, 1, , 2, 22.40000000000002, 1, 3, 2, 1.21730512239, 24, Why show competence?,  Pass the time., 3, 51.468999999999994, 51.468999999999994, 0, 15, 15, 15, 2001, 3, 2, 0.01, fmri_v320180222005112, 60, Thu Feb 22 2018 08:24:53 GMT-0800 (PST), stroop, 60, , , , , , , 0, -1, -1, 0, 2001, 16, 2, 0, 0.01, 0.01, , 2.92468411878, 51.470999999999975, 51.47199999999998, , 25, 30, 1, , 2, 22.40000000000002, 1, 3, 2, 1.21730512239, 24, Why show competence?,  Pass the time., 3, 51.468999999999994, 51.468999999999994, 0, 15, 15, 15, 2001, 3, 2, 0.01, fmri_v320180222005112, 60, Thu Feb 22 2018 08:24:53 GMT-0800 (PST), stroop, 60
, , , , , , , , , , 0, -1, -1, 0, 2001, 17, 1, 0.0020000000000095497, 0.01, 0.01, , 2.16483815881, 51.49199999999999, 51.498999999999995, , 25, 30, 1, , 6, 27.200000000000003, 1, 3, 2, 2.07936600464, 39, How to prepare meals?,  Follow recipes., 4, 51.472999999999985, 51.474999999999994, 0, 16, 16, 16, 2001, 3, 2, 0.01, fmri_v320180222005112, 60, Thu Feb 22 2018 08:24:53 GMT-0800 (PST), stroop, 60, , , , , , , 0, -1, -1, 0, 2001, 17, 1, 0.0020000000000095497, 0.01, 0.01, , 2.16483815881, 51.49199999999999, 51.498999999999995, , 25, 30, 1, , 6, 27.200000000000003, 1, 3, 2, 2.07936600464, 39, How to prepare meals?,  Follow recipes., 4, 51.472999999999985, 51.474999999999994, 0, 16, 16, 16, 2001, 3, 2, 0.01, fmri_v320180222005112, 60, Thu Feb 22 2018 08:24:53 GMT-0800 (PST), stroop, 60
, , , , , , , , , , 0, -1, -1, 0, 2001, 18, 2, 0.0010000000000047748, 0.01, 0.01, , 2.60315962356, 51.50399999999999, 51.50699999999998, , 25, 30, 1, , 3, 23.599999999999998, 1, 3, 2, 2.97003912971, 56, How to consume caffeine?,  Press buttons., 4, 51.50199999999998, 51.50199999999998, 0, 17, 17, 17, 2001, 3, 2, 0.01, fmri_v320180222005112, 60, Thu Feb 22 2018 08:24:53 GMT-0800 (PST), stroop, 60, , , , , , , 0, -1, -1, 0, 2001, 18, 2, 0.0010000000000047748, 0.01, 0.01, , 2.60315962356, 51.50399999999999, 51.50699999999998, , 25, 30, 1, , 3, 23.599999999999998, 1, 3, 2, 2.97003912971, 56, How to consume caffeine?,  Press buttons., 4, 51.50199999999998, 51.50199999999998, 0, 17, 17, 17, 2001, 3, 2, 0.01, fmri_v320180222005112, 60, Thu Feb 22 2018 08:24:53 GMT-0800 (PST), stroop, 60
, , , , , , , , , , 0, -1, -1, 0, 2001, 19, 1, 0, 0.01, 0.01, , 1.23515146454, 51.510999999999996, 51.512, , 25, 30, 1, , 9, 30.800000000000004, 1, 3, 2, 2.61936005489, 4, How to make a purchase?,  Go shopping., 5, 51.50799999999998, 51.50799999999998, 0, 18, 18, 18, 2001, 3, 2, 0.01, fmri_v320180222005112, 60, Thu Feb 22 2018 08:24:53 GMT-0800 (PST), stroop, 60, , , , , , , 0, -1, -1, 0, 2001, 19, 1, 0, 0.01, 0.01, , 1.23515146454, 51.510999999999996, 51.512, , 25, 30, 1, , 9, 30.800000000000004, 1, 3, 2, 2.61936005489, 4, How to make a purchase?,  Go shopping., 5, 51.50799999999998, 51.50799999999998, 0, 18, 18, 18, 2001, 3, 2, 0.01, fmri_v320180222005112, 60, Thu Feb 22 2018 08:24:53 GMT-0800 (PST), stroop, 60
, , , , , , , , , , 0, -1, -1, 0, 2001, 20, 2, 0, 0.01, 0.01, , 1.17831796448, 51.52799999999999, 51.542, , 25, 30, 1, , 8, 29.600000000000005, 1, 3, 2, 2.06698711401, 50, How to show appreciation?,  Give applause., 5, 51.51299999999998, 51.52599999999998, 0, 19, 19, 19, 2001, 3, 2, 0.01, fmri_v320180222005112, 60, Thu Feb 22 2018 08:24:53 GMT-0800 (PST), stroop, 60, , , , , , , 0, -1, -1, 0, 2001, 20, 2, 0, 0.01, 0.01, , 1.17831796448, 51.52799999999999, 51.542, , 25, 30, 1, , 8, 29.600000000000005, 1, 3, 2, 2.06698711401, 50, How to show appreciation?,  Give applause., 5, 51.51299999999998, 51.52599999999998, 0, 19, 19, 19, 2001, 3, 2, 0.01, fmri_v320180222005112, 60, Thu Feb 22 2018 08:24:53 GMT-0800 (PST), stroop, 60
, , , , , , , , , , 0, -1, -1, 0, 2001, 21, 2, 0, 0.01, 0.01, , 2.18662483903, 51.578, 51.593999999999994, , 25, 30, 1, , 7, 28.400000000000023, 1, 3, 2, 1.73858654054, 27, How to show cleanliness?,  Write an email., 6, 51.54899999999998, 51.55099999999999, 0, 20, 20, 20, 2001, 3, 2, 0.01, fmri_v320180222005112, 60, Thu Feb 22 2018 08:24:53 GMT-0800 (PST), stroop, 60, , , , , , , 0, -1, -1, 0, 2001, 21, 2, 0, 0.01, 0.01, , 2.18662483903, 51.578, 51.593999999999994, , 25, 30, 1, , 7, 28.400000000000023, 1, 3, 2, 1.73858654054, 27, How to show cleanliness?,  Write an email., 6, 51.54899999999998, 51.55099999999999, 0, 20, 20, 20, 2001, 3, 2, 0.01, fmri_v320180222005112, 60, Thu Feb 22 2018 08:24:53 GMT-0800 (PST), stroop, 60
, , , , , , , , , , 0, -1, -1, 0, 2001, 22, 2, 0, 0.01, 0.01, , 1.03354950642, 51.61499999999998, 51.61699999999999, , 25, 30, 1, , 1, 21.199999999999996, 1, 3, 2, 1.48229626595, 30, How to show humility?,  Build muscles., 6, 51.605999999999995, 51.611999999999995, 0, 21, 21, 21, 2001, 3, 2, 0.01, fmri_v320180222005112, 60, Thu Feb 22 2018 08:24:53 GMT-0800 (PST), stroop, 60, , , , , , , 0, -1, -1, 0, 2001, 22, 2, 0, 0.01, 0.01, , 1.03354950642, 51.61499999999998, 51.61699999999999, , 25, 30, 1, , 1, 21.199999999999996, 1, 3, 2, 1.48229626595, 30, How to show humility?,  Build muscles., 6, 51.605999999999995, 51.611999999999995, 0, 21, 21, 21, 2001, 3, 2, 0.01, fmri_v320180222005112, 60, Thu Feb 22 2018 08:24:53 GMT-0800 (PST), stroop, 60
, , , , , , , , , , 0, -1, -1, 0, 2001, 23, 1, 0, 0.01, 0.01, , 1.06580981929, 51.621999999999986, 51.625999999999976, , 25, 30, 1, , 5, 26, 1, 3, 2, 2.16124550098, 59, Why go shopping?,  Make a purchase., 2, 51.617999999999995, 51.619, 0, 22, 22, 22, 2001, 3, 2, 0.01, fmri_v320180222005112, 60, Thu Feb 22 2018 08:24:53 GMT-0800 (PST), stroop, 60, , , , , , , 0, -1, -1, 0, 2001, 23, 1, 0, 0.01, 0.01, , 1.06580981929, 51.621999999999986, 51.625999999999976, , 25, 30, 1, , 5, 26, 1, 3, 2, 2.16124550098, 59, Why go shopping?,  Make a purchase., 2, 51.617999999999995, 51.619, 0, 22, 22, 22, 2001, 3, 2, 0.01, fmri_v320180222005112, 60, Thu Feb 22 2018 08:24:53 GMT-0800 (PST), stroop, 60
, , , , , , , , , , 0, -1, -1, 0, 2001, 24, 2, 0, 0.01, 0.01, , 2.31659940105, 51.629999999999995, 51.633999999999986, , 25, 30, 1, , 4, 24.8, 1, 3, 2, 1.35098227955, 19, Why lift weights?,  Build muscles., 2, 51.62699999999998, 51.62699999999998, 0, 23, 23, 23, 2001, 3, 2, 0.01, fmri_v320180222005112, 60, Thu Feb 22 2018 08:24:53 GMT-0800 (PST), stroop, 60, , , , , , , 0, -1, -1, 0, 2001, 24, 2, 0, 0.01, 0.01, , 2.31659940105, 51.629999999999995, 51.633999999999986, , 25, 30, 1, , 4, 24.8, 1, 3, 2, 1.35098227955, 19, Why lift weights?,  Build muscles., 2, 51.62699999999998, 51.62699999999998, 0, 23, 23, 23, 2001, 3, 2, 0.01, fmri_v320180222005112, 60, Thu Feb 22 2018 08:24:53 GMT-0800 (PST), stroop, 60
, , , , , , , , , , 0, -1, -1, 0, 2001, 25, 1, 0, 0.01, 0.01, , 3.3987465407, 51.639999999999986, 51.643, , 25, 30, 1, , 3, 23.599999999999998, 1, 3, 2, 1.16462800573, 26, How to avoid mistakes?,  Obey laws., 6, 51.633999999999986, 51.635999999999996, 0, 24, 24, 24, 2001, 3, 2, 0.01, fmri_v320180222005112, 60, Thu Feb 22 2018 08:24:53 GMT-0800 (PST), stroop, 60, , , , , , , 0, -1, -1, 0, 2001, 25, 1, 0, 0.01, 0.01, , 3.3987465407, 51.639999999999986, 51.643, , 25, 30, 1, , 3, 23.599999999999998, 1, 3, 2, 1.16462800573, 26, How to avoid mistakes?,  Obey laws., 6, 51.633999999999986, 51.635999999999996, 0, 24, 24, 24, 2001, 3, 2, 0.01, fmri_v320180222005112, 60, Thu Feb 22 2018 08:24:53 GMT-0800 (PST), stroop, 60
, , , , , , , , , , 0, -1, -1, 0, 2001, 26, 2, 0.0010000000000047748, 0.01, 0.01, , 1.24682552557, 51.649, 51.64999999999998, , 25, 30, 1, , 2, 22.40000000000002, 1, 3, 2, 2.60501425114, 7, How to satisfy a need?,  Make a purchase., 6, 51.64399999999998, 51.64599999999999, 0, 25, 25, 25, 2001, 3, 2, 0.01, fmri_v320180222005112, 60, Thu Feb 22 2018 08:24:53 GMT-0800 (PST), stroop, 60, , , , , , , 0, -1, -1, 0, 2001, 26, 2, 0.0010000000000047748, 0.01, 0.01, , 1.24682552557, 51.649, 51.64999999999998, , 25, 30, 1, , 2, 22.40000000000002, 1, 3, 2, 2.60501425114, 7, How to satisfy a need?,  Make a purchase., 6, 51.64399999999998, 51.64599999999999, 0, 25, 25, 25, 2001, 3, 2, 0.01, fmri_v320180222005112, 60, Thu Feb 22 2018 08:24:53 GMT-0800 (PST), stroop, 60
, , , , , , , , , , 0, -1, -1, 0, 2001, 27, 1, 0, 0.01, 0.01, , 1.09220347722, 51.661, 51.67599999999999, , 25, 30, 1, , 1, 21.199999999999996, 1, 3, 2, 1.00172106952, 6, Why get a promotion?,  Achieve success., 3, 51.65199999999999, 51.65199999999999, 0, 26, 26, 26, 2001, 3, 2, 0.01, fmri_v320180222005112, 60, Thu Feb 22 2018 08:24:53 GMT-0800 (PST), stroop, 60, , , , , , , 0, -1, -1, 0, 2001, 27, 1, 0, 0.01, 0.01, , 1.09220347722, 51.661, 51.67599999999999, , 25, 30, 1, , 1, 21.199999999999996, 1, 3, 2, 1.00172106952, 6, Why get a promotion?,  Achieve success., 3, 51.65199999999999, 51.65199999999999, 0, 26, 26, 26, 2001, 3, 2, 0.01, fmri_v320180222005112, 60, Thu Feb 22 2018 08:24:53 GMT-0800 (PST), stroop, 60
, , , , , , , , , , 0, -1, -1, 0, 2001, 28, 2, 0, 0.01, 0.01, , 1.62765281261, 51.684, 51.68799999999999, , 25, 30, 1, , 4, 24.8, 1, 3, 2, 1.30068016259, 41, Why hold a party?,  Feel sociable., 3, 51.679, 51.67999999999998, 0, 27, 27, 27, 2001, 3, 2, 0.01, fmri_v320180222005112, 60, Thu Feb 22 2018 08:24:53 GMT-0800 (PST), stroop, 60, , , , , , , 0, -1, -1, 0, 2001, 28, 2, 0, 0.01, 0.01, , 1.62765281261, 51.684, 51.68799999999999, , 25, 30, 1, , 4, 24.8, 1, 3, 2, 1.30068016259, 41, Why hold a party?,  Feel sociable., 3, 51.679, 51.67999999999998, 0, 27, 27, 27, 2001, 3, 2, 0.01, fmri_v320180222005112, 60, Thu Feb 22 2018 08:24:53 GMT-0800 (PST), stroop, 60
, , , , , , , , , , 0, -1, -1, 0, 2001, 29, 2, 0, 0.01, 0.01, , 4.26657995297, 51.69399999999999, 51.69799999999998, , 25, 30, 1, , 8, 29.600000000000005, 1, 3, 2, 2.03971587219, 28, Why make a list?,  Plan ahead., 2, 51.69, 51.69199999999998, 0, 28, 28, 28, 2001, 3, 2, 0.01, fmri_v320180222005112, 60, Thu Feb 22 2018 08:24:53 GMT-0800 (PST), stroop, 60, , , , , , , 0, -1, -1, 0, 2001, 29, 2, 0, 0.01, 0.01, , 4.26657995297, 51.69399999999999, 51.69799999999998, , 25, 30, 1, , 8, 29.600000000000005, 1, 3, 2, 2.03971587219, 28, Why make a list?,  Plan ahead., 2, 51.69, 51.69199999999998, 0, 28, 28, 28, 2001, 3, 2, 0.01, fmri_v320180222005112, 60, Thu Feb 22 2018 08:24:53 GMT-0800 (PST), stroop, 60
, , , , , , , , , , 0, -1, -1, 0, 2001, 30, 1, 0, 0.01, 0.01, , 1.09255874258, 51.70099999999999, 51.704999999999984, , 25, 30, 1, , 7, 28.400000000000023, 1, 3, 2, 3.3311111996, 43, Why give applause?,  Show appreciation., 2, 51.69799999999998, 51.698999999999984, 0, 29, 29, 29, 2001, 3, 2, 0.01, fmri_v320180222005112, 60, Thu Feb 22 2018 08:24:53 GMT-0800 (PST), stroop, 60, , , , , , , 0, -1, -1, 0, 2001, 30, 1, 0, 0.01, 0.01, , 1.09255874258, 51.70099999999999, 51.704999999999984, , 25, 30, 1, , 7, 28.400000000000023, 1, 3, 2, 3.3311111996, 43, Why give applause?,  Show appreciation., 2, 51.69799999999998, 51.698999999999984, 0, 29, 29, 29, 2001, 3, 2, 0.01, fmri_v320180222005112, 60, Thu Feb 22 2018 08:24:53 GMT-0800 (PST), stroop, 60
, , , , , , , , , , 0, -1, -1, 0, 2001, 31, 1, 0, 0.01, 0.01, , 1.17399981984, 51.71199999999999, 51.720999999999975, , 25, 30, 1, , 5, 26, 1, 3, 2, 2.24254221567, 38, How to gain knowledge?,  Read articles., 5, 51.70599999999999, 51.708, 0, 30, 30, 30, 2001, 3, 2, 0.01, fmri_v320180222005112, 60, Thu Feb 22 2018 08:24:53 GMT-0800 (PST), stroop, 60, , , , , , , 0, -1, -1, 0, 2001, 31, 1, 0, 0.01, 0.01, , 1.17399981984, 51.71199999999999, 51.720999999999975, , 25, 30, 1, , 5, 26, 1, 3, 2, 2.24254221567, 38, How to gain knowledge?,  Read articles., 5, 51.70599999999999, 51.708, 0, 30, 30, 30, 2001, 3, 2, 0.01, fmri_v320180222005112, 60, Thu Feb 22 2018 08:24:53 GMT-0800 (PST), stroop, 60
, , , , , , , , , , 0, -1, -1, 0, 2001, 32, 2, 0, 0.01, 0.01, , 1.89424002401, 51.756, 51.774, , 25, 30, 1, , 6, 27.200000000000003, 1, 3, 2, 1.81000419273, 18, How to make a donation?,  Mix a cocktail., 5, 51.724999999999994, 51.73399999999998, 0, 31, 31, 31, 2001, 3, 2, 0.01, fmri_v320180222005112, 60, Thu Feb 22 2018 08:24:53 GMT-0800 (PST), stroop, 60, , , , , , , 0, -1, -1, 0, 2001, 32, 2, 0, 0.01, 0.01, , 1.89424002401, 51.756, 51.774, , 25, 30, 1, , 6, 27.200000000000003, 1, 3, 2, 1.81000419273, 18, How to make a donation?,  Mix a cocktail., 5, 51.724999999999994, 51.73399999999998, 0, 31, 31, 31, 2001, 3, 2, 0.01, fmri_v320180222005112, 60, Thu Feb 22 2018 08:24:53 GMT-0800 (PST), stroop, 60
, , , , , , , , , , 0, -1, -1, 0, 2001, 33, 1, 0, 0.01, 0.01, , 3.02871218557, 51.792, 51.79899999999998, , 25, 30, 1, , 5, 26, 1, 3, 2, 1.99065599788, 17, How to write a poem?,  Grab a pencil., 4, 51.78099999999998, 51.78199999999998, 0, 32, 32, 32, 2001, 3, 2, 0.01, fmri_v320180222005112, 60, Thu Feb 22 2018 08:24:53 GMT-0800 (PST), stroop, 60, , , , , , , 0, -1, -1, 0, 2001, 33, 1, 0, 0.01, 0.01, , 3.02871218557, 51.792, 51.79899999999998, , 25, 30, 1, , 5, 26, 1, 3, 2, 1.99065599788, 17, How to write a poem?,  Grab a pencil., 4, 51.78099999999998, 51.78199999999998, 0, 32, 32, 32, 2001, 3, 2, 0.01, fmri_v320180222005112, 60, Thu Feb 22 2018 08:24:53 GMT-0800 (PST), stroop, 60
, , , , , , , , , , 0, -1, -1, 0, 2001, 34, 2, 0, 0.01, 0.01, , 2.31872729857, 51.90099999999998, 51.90599999999998, , 25, 30, 1, , 7, 28.400000000000023, 1, 3, 2, 1.36037357491, 10, How to open a browser?,  Click a mouse., 4, 51.87899999999999, 51.89499999999998, 0, 33, 33, 33, 2001, 3, 2, 0.01, fmri_v320180222005112, 60, Thu Feb 22 2018 08:24:53 GMT-0800 (PST), stroop, 60, , , , , , , 0, -1, -1, 0, 2001, 34, 2, 0, 0.01, 0.01, , 2.31872729857, 51.90099999999998, 51.90599999999998, , 25, 30, 1, , 7, 28.400000000000023, 1, 3, 2, 1.36037357491, 10, How to open a browser?,  Click a mouse., 4, 51.87899999999999, 51.89499999999998, 0, 33, 33, 33, 2001, 3, 2, 0.01, fmri_v320180222005112, 60, Thu Feb 22 2018 08:24:53 GMT-0800 (PST), stroop, 60
, , , , , , , , , , 0, -1, -1, 0, 2001, 35, 1, 0, 0.01, 0.01, , 1.72189371963, 51.922, 51.928, , 25, 30, 1, , 2, 22.40000000000002, 1, 3, 2, 3.76551676077, 9, Why wear ties?,  Dress formally., 1, 51.90899999999999, 51.911, 0, 34, 34, 34, 2001, 3, 2, 0.01, fmri_v320180222005112, 60, Thu Feb 22 2018 08:24:53 GMT-0800 (PST), stroop, 60, , , , , , , 0, -1, -1, 0, 2001, 35, 1, 0, 0.01, 0.01, , 1.72189371963, 51.922, 51.928, , 25, 30, 1, , 2, 22.40000000000002, 1, 3, 2, 3.76551676077, 9, Why wear ties?,  Dress formally., 1, 51.90899999999999, 51.911, 0, 34, 34, 34, 2001, 3, 2, 0.01, fmri_v320180222005112, 60, Thu Feb 22 2018 08:24:53 GMT-0800 (PST), stroop, 60
, , , , , , , , , , 0, -1, -1, 0, 2001, 36, 2, 0, 0.01, 0.01, , 1.0437893764, 51.93099999999998, 51.93299999999999, , 25, 30, 1, , 9, 30.800000000000004, 1, 3, 2, 1.61075504295, 53, Why open a magazine?,  Read articles., 1, 51.929, 51.92999999999998, 0, 35, 35, 35, 2001, 3, 2, 0.01, fmri_v320180222005112, 60, Thu Feb 22 2018 08:24:53 GMT-0800 (PST), stroop, 60, , , , , , , 0, -1, -1, 0, 2001, 36, 2, 0, 0.01, 0.01, , 1.0437893764, 51.93099999999998, 51.93299999999999, , 25, 30, 1, , 9, 30.800000000000004, 1, 3, 2, 1.61075504295, 53, Why open a magazine?,  Read articles., 1, 51.929, 51.92999999999998, 0, 35, 35, 35, 2001, 3, 2, 0.01, fmri_v320180222005112, 60, Thu Feb 22 2018 08:24:53 GMT-0800 (PST), stroop, 60
, , , , , , , , , , 0, -1, -1, 0, 2001, 37, 2, 0, 0.01, 0.01, , 1.84895298445, 51.93699999999998, 51.93899999999999, , 25, 30, 1, , 4, 24.8, 1, 3, 2, 1.31158373666, 21, Why drink coffee?,  Consume caffeine., 1, 51.934, 51.93599999999998, 0, 36, 36, 36, 2001, 3, 2, 0.01, fmri_v320180222005112, 60, Thu Feb 22 2018 08:24:53 GMT-0800 (PST), stroop, 60, , , , , , , 0, -1, -1, 0, 2001, 37, 2, 0, 0.01, 0.01, , 1.84895298445, 51.93699999999998, 51.93899999999999, , 25, 30, 1, , 4, 24.8, 1, 3, 2, 1.31158373666, 21, Why drink coffee?,  Consume caffeine., 1, 51.934, 51.93599999999998, 0, 36, 36, 36, 2001, 3, 2, 0.01, fmri_v320180222005112, 60, Thu Feb 22 2018 08:24:53 GMT-0800 (PST), stroop, 60
, , , , , , , , , , 0, -1, -1, 0, 2001, 38, 1, 0, 0.01, 0.01, , 1.67351339404, 51.95599999999999, 51.95999999999998, , 25, 30, 1, , 8, 29.600000000000005, 1, 3, 2, 1.91737878928, 11, Why use a remote?,  Watch television., 1, 51.94999999999999, 51.953, 0, 37, 37, 37, 2001, 3, 2, 0.01, fmri_v320180222005112, 60, Thu Feb 22 2018 08:24:53 GMT-0800 (PST), stroop, 60, , , , , , , 0, -1, -1, 0, 2001, 38, 1, 0, 0.01, 0.01, , 1.67351339404, 51.95599999999999, 51.95999999999998, , 25, 30, 1, , 8, 29.600000000000005, 1, 3, 2, 1.91737878928, 11, Why use a remote?,  Watch television., 1, 51.94999999999999, 51.953, 0, 37, 37, 37, 2001, 3, 2, 0.01, fmri_v320180222005112, 60, Thu Feb 22 2018 08:24:53 GMT-0800 (PST), stroop, 60
, , , , , , , , , , 0, -1, -1, 0, 2001, 39, 1, 0, 0.01, 0.01, , 1.48450544215, 51.964, 51.96799999999999, , 25, 30, 1, , 3, 23.599999999999998, 1, 3, 2, 1.59675213415, 35, Why kill germs?,  Avoid diseases., 2, 51.960999999999984, 51.96199999999999, 0, 38, 38, 38, 2001, 3, 2, 0.01, fmri_v320180222005112, 60, Thu Feb 22 2018 08:24:53 GMT-0800 (PST), stroop, 60, , , , , , , 0, -1, -1, 0, 2001, 39, 1, 0, 0.01, 0.01, , 1.48450544215, 51.964, 51.96799999999999, , 25, 30, 1, , 3, 23.599999999999998, 1, 3, 2, 1.59675213415, 35, Why kill germs?,  Avoid diseases., 2, 51.960999999999984, 51.96199999999999, 0, 38, 38, 38, 2001, 3, 2, 0.01, fmri_v320180222005112, 60, Thu Feb 22 2018 08:24:53 GMT-0800 (PST), stroop, 60
, , , , , , , , , , 0, -1, -1, 0, 2001, 40, 2, 0, 0.01, 0.01, , 4.11692016057, 51.970999999999975, 51.972999999999985, , 25, 30, 1, , 6, 27.200000000000003, 1, 3, 2, 4.08860034278, 36, Why make a phone call?,  Contact a friend., 2, 51.968999999999994, 51.968999999999994, 0, 39, 39, 39, 2001, 3, 2, 0.01, fmri_v320180222005112, 60, Thu Feb 22 2018 08:24:53 GMT-0800 (PST), stroop, 60, , , , , , , 0, -1, -1, 0, 2001, 40, 2, 0, 0.01, 0.01, , 4.11692016057, 51.970999999999975, 51.972999999999985, , 25, 30, 1, , 6, 27.200000000000003, 1, 3, 2, 4.08860034278, 36, Why make a phone call?,  Contact a friend., 2, 51.968999999999994, 51.968999999999994, 0, 39, 39, 39, 2001, 3, 2, 0.01, fmri_v320180222005112, 60, Thu Feb 22 2018 08:24:53 GMT-0800 (PST), stroop, 60
, , , , , , , , , , 0, -1, -1, 0, 2001, 41, 2, 0, 0.01, 0.01, , 1.13559398176, 51.976, 51.97799999999998, , 25, 30, 1, , 3, 23.599999999999998, 1, 3, 2, 1.10954784509, 12, How to give to charity?,  Use a camera., 5, 51.97399999999999, 51.97399999999999, 0, 40, 40, 40, 2001, 3, 2, 0.01, fmri_v320180222005112, 60, Thu Feb 22 2018 08:24:53 GMT-0800 (PST), stroop, 60, , , , , , , 0, -1, -1, 0, 2001, 41, 2, 0, 0.01, 0.01, , 1.13559398176, 51.976, 51.97799999999998, , 25, 30, 1, , 3, 23.599999999999998, 1, 3, 2, 1.10954784509, 12, How to give to charity?,  Use a camera., 5, 51.97399999999999, 51.97399999999999, 0, 40, 40, 40, 2001, 3, 2, 0.01, fmri_v320180222005112, 60, Thu Feb 22 2018 08:24:53 GMT-0800 (PST), stroop, 60
, , , , , , , , , , 0, -1, -1, 0, 2001, 42, 1, 0.0010000000000047748, 0.01, 0.01, , 2.80018498141, 51.980999999999995, 51.982, , 25, 30, 1, , 4, 24.8, 1, 3, 2, 2.32831545882, 57, How to show intelligence?,  Participate in class., 5, 51.978999999999985, 51.978999999999985, 0, 41, 41, 41, 2001, 3, 2, 0.01, fmri_v320180222005112, 60, Thu Feb 22 2018 08:24:53 GMT-0800 (PST), stroop, 60, , , , , , , 0, -1, -1, 0, 2001, 42, 1, 0.0010000000000047748, 0.01, 0.01, , 2.80018498141, 51.980999999999995, 51.982, , 25, 30, 1, , 4, 24.8, 1, 3, 2, 2.32831545882, 57, How to show intelligence?,  Participate in class., 5, 51.978999999999985, 51.978999999999985, 0, 41, 41, 41, 2001, 3, 2, 0.01, fmri_v320180222005112, 60, Thu Feb 22 2018 08:24:53 GMT-0800 (PST), stroop, 60
, , , , , , , , , , 0, -1, -1, 0, 2001, 43, 1, 0, 0.01, 0.01, , 1.37194492364, 51.984999999999985, 51.98599999999999, , 25, 30, 1, , 9, 30.800000000000004, 1, 3, 2, 1.15212978812, 1, How to lift weights?,  Fasten seatbelt., 4, 51.982, 51.98399999999998, 0, 42, 42, 42, 2001, 3, 2, 0.01, fmri_v320180222005112, 60, Thu Feb 22 2018 08:24:53 GMT-0800 (PST), stroop, 60, , , , , , , 0, -1, -1, 0, 2001, 43, 1, 0, 0.01, 0.01, , 1.37194492364, 51.984999999999985, 51.98599999999999, , 25, 30, 1, , 9, 30.800000000000004, 1, 3, 2, 1.15212978812, 1, How to lift weights?,  Fasten seatbelt., 4, 51.982, 51.98399999999998, 0, 42, 42, 42, 2001, 3, 2, 0.01, fmri_v320180222005112, 60, Thu Feb 22 2018 08:24:53 GMT-0800 (PST), stroop, 60
, , , , , , , , , , 0, -1, -1, 0, 2001, 44, 2, 0, 0.01, 0.01, , 1.56040135414, 52.00199999999998, 52.00699999999998, , 25, 30, 1, , 2, 22.40000000000002, 1, 3, 2, 4.10376319248, 49, How to read articles?,  Open a magazine., 4, 51.988, 51.994, 0, 43, 43, 43, 2001, 3, 2, 0.01, fmri_v320180222005112, 60, Thu Feb 22 2018 08:24:53 GMT-0800 (PST), stroop, 60, , , , , , , 0, -1, -1, 0, 2001, 44, 2, 0, 0.01, 0.01, , 1.56040135414, 52.00199999999998, 52.00699999999998, , 25, 30, 1, , 2, 22.40000000000002, 1, 3, 2, 4.10376319248, 49, How to read articles?,  Open a magazine., 4, 51.988, 51.994, 0, 43, 43, 43, 2001, 3, 2, 0.01, fmri_v320180222005112, 60, Thu Feb 22 2018 08:24:53 GMT-0800 (PST), stroop, 60
, , , , , , , , , , 0, -1, -1, 0, 2001, 45, 2, 0, 0.01, 0.01, , 1.6564438375, 52.01299999999998, 52.016999999999996, , 25, 30, 1, , 7, 28.400000000000023, 1, 3, 2, 1.99577423436, 3, Why attend a school?,  Get a degree., 3, 52.008999999999986, 52.010999999999996, 0, 44, 44, 44, 2001, 3, 2, 0.01, fmri_v320180222005112, 60, Thu Feb 22 2018 08:24:53 GMT-0800 (PST), stroop, 60, , , , , , , 0, -1, -1, 0, 2001, 45, 2, 0, 0.01, 0.01, , 1.6564438375, 52.01299999999998, 52.016999999999996, , 25, 30, 1, , 7, 28.400000000000023, 1, 3, 2, 1.99577423436, 3, Why attend a school?,  Get a degree., 3, 52.008999999999986, 52.010999999999996, 0, 44, 44, 44, 2001, 3, 2, 0.01, fmri_v320180222005112, 60, Thu Feb 22 2018 08:24:53 GMT-0800 (PST), stroop, 60
, , , , , , , , , , 0, -1, -1, 0, 2001, 46, 1, 0, 0.01, 0.01, , 1.04574444337, 52.111999999999995, 52.113999999999976, , 25, 30, 1, , 8, 29.600000000000005, 1, 3, 2, 2.07096157914, 58, Why give to charity?,  Support a cause., 3, 52.09299999999999, 52.09299999999999, 0, 45, 45, 45, 2001, 3, 2, 0.01, fmri_v320180222005112, 60, Thu Feb 22 2018 08:24:53 GMT-0800 (PST), stroop, 60, , , , , , , 0, -1, -1, 0, 2001, 46, 1, 0, 0.01, 0.01, , 1.04574444337, 52.111999999999995, 52.113999999999976, , 25, 30, 1, , 8, 29.600000000000005, 1, 3, 2, 2.07096157914, 58, Why give to charity?,  Support a cause., 3, 52.09299999999999, 52.09299999999999, 0, 45, 45, 45, 2001, 3, 2, 0.01, fmri_v320180222005112, 60, Thu Feb 22 2018 08:24:53 GMT-0800 (PST), stroop, 60
, , , , , , , , , , 0, -1, -1, 0, 2001, 47, 1, 0, 0.01, 0.01, , 2.74038327244, 52.11699999999999, 52.119, , 25, 30, 1, , 1, 21.199999999999996, 1, 3, 2, 1.19067541912, 8, How to impress others?,  Show intelligence., 6, 52.11499999999998, 52.11499999999998, 0, 46, 46, 46, 2001, 3, 2, 0.01, fmri_v320180222005112, 60, Thu Feb 22 2018 08:24:53 GMT-0800 (PST), stroop, 60, , , , , , , 0, -1, -1, 0, 2001, 47, 1, 0, 0.01, 0.01, , 2.74038327244, 52.11699999999999, 52.119, , 25, 30, 1, , 1, 21.199999999999996, 1, 3, 2, 1.19067541912, 8, How to impress others?,  Show intelligence., 6, 52.11499999999998, 52.11499999999998, 0, 46, 46, 46, 2001, 3, 2, 0.01, fmri_v320180222005112, 60, Thu Feb 22 2018 08:24:53 GMT-0800 (PST), stroop, 60
, , , , , , , , , , 0, -1, -1, 0, 2001, 48, 2, 0, 0.01, 0.01, , 3.859198797, 52.121999999999986, 52.123999999999995, , 25, 30, 1, , 6, 27.200000000000003, 1, 3, 2, 1.50407766238, 45, How to feel well?,  Reduce pain., 6, 52.119999999999976, 52.121999999999986, 0, 47, 47, 47, 2001, 3, 2, 0.01, fmri_v320180222005112, 60, Thu Feb 22 2018 08:24:53 GMT-0800 (PST), stroop, 60, , , , , , , 0, -1, -1, 0, 2001, 48, 2, 0, 0.01, 0.01, , 3.859198797, 52.121999999999986, 52.123999999999995, , 25, 30, 1, , 6, 27.200000000000003, 1, 3, 2, 1.50407766238, 45, How to feel well?,  Reduce pain., 6, 52.119999999999976, 52.121999999999986, 0, 47, 47, 47, 2001, 3, 2, 0.01, fmri_v320180222005112, 60, Thu Feb 22 2018 08:24:53 GMT-0800 (PST), stroop, 60
, , , , , , , , , , 0, -1, -1, 0, 2001, 49, 2, 0, 0.01, 0.01, , 2.11188736587, 52.13899999999998, 52.141999999999996, , 25, 30, 1, , 2, 22.40000000000002, 1, 3, 2, 1.13374375503, 29, Why participate in class?,  Show intelligence., 2, 52.131, 52.135999999999996, 0, 48, 48, 48, 2001, 3, 2, 0.01, fmri_v320180222005112, 60, Thu Feb 22 2018 08:24:53 GMT-0800 (PST), stroop, 60, , , , , , , 0, -1, -1, 0, 2001, 49, 2, 0, 0.01, 0.01, , 2.11188736587, 52.13899999999998, 52.141999999999996, , 25, 30, 1, , 2, 22.40000000000002, 1, 3, 2, 1.13374375503, 29, Why participate in class?,  Show intelligence., 2, 52.131, 52.135999999999996, 0, 48, 48, 48, 2001, 3, 2, 0.01, fmri_v320180222005112, 60, Thu Feb 22 2018 08:24:53 GMT-0800 (PST), stroop, 60
, , , , , , , , , , 0, -1, -1, 0, 2001, 50, 1, 0, 0.01, 0.01, , 1.03392151933, 52.14599999999999, 52.147999999999996, , 25, 30, 1, , 7, 28.400000000000023, 1, 3, 2, 1.05404218595, 44, Why dress formally?,  Get a promotion., 2, 52.14499999999998, 52.14499999999998, 0, 49, 49, 49, 2001, 3, 2, 0.01, fmri_v320180222005112, 60, Thu Feb 22 2018 08:24:53 GMT-0800 (PST), stroop, 60, , , , , , , 0, -1, -1, 0, 2001, 50, 1, 0, 0.01, 0.01, , 1.03392151933, 52.14599999999999, 52.147999999999996, , 25, 30, 1, , 7, 28.400000000000023, 1, 3, 2, 1.05404218595, 44, Why dress formally?,  Get a promotion., 2, 52.14499999999998, 52.14499999999998, 0, 49, 49, 49, 2001, 3, 2, 0.01, fmri_v320180222005112, 60, Thu Feb 22 2018 08:24:53 GMT-0800 (PST), stroop, 60
, , , , , , , , , , 0, -1, -1, 0, 2001, 51, 2, 0, 0.01, 0.01, , 3.45853445105, 52.155, 52.15699999999998, , 25, 30, 1, , 3, 23.599999999999998, 1, 3, 2, 1.00728528511, 14, Why build muscles?,  Show humility., 3, 52.15099999999998, 52.15299999999999, 0, 50, 50, 50, 2001, 3, 2, 0.01, fmri_v320180222005112, 60, Thu Feb 22 2018 08:24:53 GMT-0800 (PST), stroop, 60, , , , , , , 0, -1, -1, 0, 2001, 51, 2, 0, 0.01, 0.01, , 3.45853445105, 52.155, 52.15699999999998, , 25, 30, 1, , 3, 23.599999999999998, 1, 3, 2, 1.00728528511, 14, Why build muscles?,  Show humility., 3, 52.15099999999998, 52.15299999999999, 0, 50, 50, 50, 2001, 3, 2, 0.01, fmri_v320180222005112, 60, Thu Feb 22 2018 08:24:53 GMT-0800 (PST), stroop, 60
, , , , , , , , , , 0, -1, -1, 0, 2001, 52, 1, 0, 0.01, 0.01, , 1.4899475435, 52.16299999999998, 52.167, , 25, 30, 1, , 9, 30.800000000000004, 1, 3, 2, 2.36546567657, 54, Why show appreciation?,  Spread joy., 3, 52.16, 52.16, 0, 51, 51, 51, 2001, 3, 2, 0.01, fmri_v320180222005112, 60, Thu Feb 22 2018 08:24:53 GMT-0800 (PST), stroop, 60, , , , , , , 0, -1, -1, 0, 2001, 52, 1, 0, 0.01, 0.01, , 1.4899475435, 52.16299999999998, 52.167, , 25, 30, 1, , 9, 30.800000000000004, 1, 3, 2, 2.36546567657, 54, Why show appreciation?,  Spread joy., 3, 52.16, 52.16, 0, 51, 51, 51, 2001, 3, 2, 0.01, fmri_v320180222005112, 60, Thu Feb 22 2018 08:24:53 GMT-0800 (PST), stroop, 60
, , , , , , , , , , 0, -1, -1, 0, 2001, 53, 1, 0, 0.01, 0.01, , 2.10032157379, 52.17099999999999, 52.17599999999999, , 25, 30, 1, , 6, 27.200000000000003, 1, 3, 2, 1.08353004058, 16, How to show creativity?,  Make art., 6, 52.16799999999998, 52.16799999999998, 0, 52, 52, 52, 2001, 3, 2, 0.01, fmri_v320180222005112, 60, Thu Feb 22 2018 08:24:53 GMT-0800 (PST), stroop, 60, , , , , , , 0, -1, -1, 0, 2001, 53, 1, 0, 0.01, 0.01, , 2.10032157379, 52.17099999999999, 52.17599999999999, , 25, 30, 1, , 6, 27.200000000000003, 1, 3, 2, 1.08353004058, 16, How to show creativity?,  Make art., 6, 52.16799999999998, 52.16799999999998, 0, 52, 52, 52, 2001, 3, 2, 0.01, fmri_v320180222005112, 60, Thu Feb 22 2018 08:24:53 GMT-0800 (PST), stroop, 60
, , , , , , , , , , 0, -1, -1, 0, 2001, 54, 2, 0.0010000000000047748, 0.01, 0.01, , 1.04779917126, 52.18799999999999, 52.191, , 25, 30, 1, , 4, 24.8, 1, 3, 2, 4.35229333421, 46, How to achieve success?,  Get a promotion., 6, 52.179, 52.18099999999998, 0, 53, 53, 53, 2001, 3, 2, 0.01, fmri_v320180222005112, 60, Thu Feb 22 2018 08:24:53 GMT-0800 (PST), stroop, 60, , , , , , , 0, -1, -1, 0, 2001, 54, 2, 0.0010000000000047748, 0.01, 0.01, , 1.04779917126, 52.18799999999999, 52.191, , 25, 30, 1, , 4, 24.8, 1, 3, 2, 4.35229333421, 46, How to achieve success?,  Get a promotion., 6, 52.179, 52.18099999999998, 0, 53, 53, 53, 2001, 3, 2, 0.01, fmri_v320180222005112, 60, Thu Feb 22 2018 08:24:53 GMT-0800 (PST), stroop, 60
, , , , , , , , , , 0, -1, -1, 0, 2001, 55, 1, 0, 0.01, 0.01, , 1.24908820889, 52.197, 52.19999999999999, , 25, 30, 1, , 5, 26, 1, 3, 2, 1.55271284379, 55, Why clap hands?,  Give applause., 1, 52.19499999999999, 52.196, 0, 54, 54, 54, 2001, 3, 2, 0.01, fmri_v320180222005112, 60, Thu Feb 22 2018 08:24:53 GMT-0800 (PST), stroop, 60, , , , , , , 0, -1, -1, 0, 2001, 55, 1, 0, 0.01, 0.01, , 1.24908820889, 52.197, 52.19999999999999, , 25, 30, 1, , 5, 26, 1, 3, 2, 1.55271284379, 55, Why clap hands?,  Give applause., 1, 52.19499999999999, 52.196, 0, 54, 54, 54, 2001, 3, 2, 0.01, fmri_v320180222005112, 60, Thu Feb 22 2018 08:24:53 GMT-0800 (PST), stroop, 60
, , , , , , , , , , 0, -1, -1, 0, 2001, 56, 1, 0, 0.01, 0.01, , 2.2841539561, 52.20999999999998, 52.212999999999994, , 25, 30, 1, , 1, 21.199999999999996, 1, 3, 2, 1.54107845822, 20, Why stir ingredients?,  Mix a cocktail., 1, 52.20099999999999, 52.204999999999984, 0, 55, 55, 55, 2001, 3, 2, 0.01, fmri_v320180222005112, 60, Thu Feb 22 2018 08:24:53 GMT-0800 (PST), stroop, 60, , , , , , , 0, -1, -1, 0, 2001, 56, 1, 0, 0.01, 0.01, , 2.2841539561, 52.20999999999998, 52.212999999999994, , 25, 30, 1, , 1, 21.199999999999996, 1, 3, 2, 1.54107845822, 20, Why stir ingredients?,  Mix a cocktail., 1, 52.20099999999999, 52.204999999999984, 0, 55, 55, 55, 2001, 3, 2, 0.01, fmri_v320180222005112, 60, Thu Feb 22 2018 08:24:53 GMT-0800 (PST), stroop, 60
, , , , , , , , , , 0, -1, -1, 0, 2001, 57, 2, 0, 0.01, 0.01, , 3.1807749961, 52.31, 52.339999999999975, , 25, 30, 1, , 7, 28.400000000000023, 1, 3, 2, 4.49559760272, 37, How to watch television?,  Use a remote., 4, 52.214999999999975, 52.22199999999998, 0, 56, 56, 56, 2001, 3, 2, 0.01, fmri_v320180222005112, 60, Thu Feb 22 2018 08:24:53 GMT-0800 (PST), stroop, 60, , , , , , , 0, -1, -1, 0, 2001, 57, 2, 0, 0.01, 0.01, , 3.1807749961, 52.31, 52.339999999999975, , 25, 30, 1, , 7, 28.400000000000023, 1, 3, 2, 4.49559760272, 37, How to watch television?,  Use a remote., 4, 52.214999999999975, 52.22199999999998, 0, 56, 56, 56, 2001, 3, 2, 0.01, fmri_v320180222005112, 60, Thu Feb 22 2018 08:24:53 GMT-0800 (PST), stroop, 60
, , , , , , , , , , 0, -1, -1, 0, 2001, 58, 1, 0, 0.01, 0.01, , 1.65186726637, 52.353999999999985, 52.361999999999995, , 25, 30, 1, , 1, 21.199999999999996, 1, 3, 2, 2.03596560228, 34, How to go shopping?,  Use credit cards., 4, 52.35299999999998, 52.353999999999985, 0, 57, 57, 57, 2001, 3, 2, 0.01, fmri_v320180222005112, 60, Thu Feb 22 2018 08:24:53 GMT-0800 (PST), stroop, 60, , , , , , , 0, -1, -1, 0, 2001, 58, 1, 0, 0.01, 0.01, , 1.65186726637, 52.353999999999985, 52.361999999999995, , 25, 30, 1, , 1, 21.199999999999996, 1, 3, 2, 2.03596560228, 34, How to go shopping?,  Use credit cards., 4, 52.35299999999998, 52.353999999999985, 0, 57, 57, 57, 2001, 3, 2, 0.01, fmri_v320180222005112, 60, Thu Feb 22 2018 08:24:53 GMT-0800 (PST), stroop, 60
, , , , , , , , , , 0, -1, -1, 0, 2001, 59, 2, 0, 0.01, 0.01, , 2.28582840604, 52.375, 52.37899999999999, , 25, 30, 1, , 9, 30.800000000000004, 1, 3, 2, 1.34983719134, 40, How to entertain others?,  Write a song., 5, 52.369999999999976, 52.371999999999986, 0, 58, 58, 58, 2001, 3, 2, 0.01, fmri_v320180222005112, 60, Thu Feb 22 2018 08:24:53 GMT-0800 (PST), stroop, 60, , , , , , , 0, -1, -1, 0, 2001, 59, 2, 0, 0.01, 0.01, , 2.28582840604, 52.375, 52.37899999999999, , 25, 30, 1, , 9, 30.800000000000004, 1, 3, 2, 1.34983719134, 40, How to entertain others?,  Write a song., 5, 52.369999999999976, 52.371999999999986, 0, 58, 58, 58, 2001, 3, 2, 0.01, fmri_v320180222005112, 60, Thu Feb 22 2018 08:24:53 GMT-0800 (PST), stroop, 60
, , , , , , , , , , 0, -1, -1, 0, 2001, 60, 2, 0.0010000000000047748, 0.01, 0.01, , 1.29073297215, 52.39699999999999, 52.41199999999998, , 25, 30, 1, , 4, 24.8, 1, 3, 2, 1.88556222774, 22, How to satisfy hunger?,  Make breakfast., 5, 52.387, 52.39099999999999, 0, 59, 59, 59, 2001, 3, 2, 0.01, fmri_v320180222005112, 60, Thu Feb 22 2018 08:24:53 GMT-0800 (PST), stroop, 60, , , , , , , 0, -1, -1, 0, 2001, 60, 2, 0.0010000000000047748, 0.01, 0.01, , 1.29073297215, 52.39699999999999, 52.41199999999998, , 25, 30, 1, , 4, 24.8, 1, 3, 2, 1.88556222774, 22, How to satisfy hunger?,  Make breakfast., 5, 52.387, 52.39099999999999, 0, 59, 59, 59, 2001, 3, 2, 0.01, fmri_v320180222005112, 60, Thu Feb 22 2018 08:24:53 GMT-0800 (PST), stroop, 60
