resp_fMRI.keys, resp_fMRI.rt, construal_resp.keys, construal_resp.rt, resp_trial.keys, resp_trial.rt, instructionLoop.thisRepN, instructionLoop.thisTrialN, instructionLoop.thisN, instructionLoop.thisIndex, blocks.thisRepN, blocks.thisTrialN, blocks.thisN, blocks.thisIndex, Subject, Trial, SSonLorR, RT, startingK, endingK, TrialStart, ITI, choiceUp, choiceMade, TrialOver, SSamount, LLamount, Condition, Choice, SSdelay, LLdelay, salienceCondition, day, runid, TaskInterval, RewardTrialRanked, Construal_QuestionText, Construal_AnswerText, Construal_Condition, construal_trialUp, construal_trialComplete, trials_set1.thisRepN, trials_set1.thisTrialN, trials_set1.thisN, trials_set1.thisIndex, participant, session, run, k_val, designDir, total_time_limit, date, expName, frameRate, finish_screen_end_response.keys, finish_screen_end_response.rt, instructionLoop.thisRepN, instructionLoop.thisTrialN, instructionLoop.thisN, instructionLoop.thisIndex, blocks.thisRepN, blocks.thisTrialN, blocks.thisN, blocks.thisIndex, Subject, Trial, SSonLorR, RT, startingK, endingK, TrialStart, ITI, choiceUp, choiceMade, TrialOver, SSamount, LLamount, Condition, Choice, SSdelay, LLdelay, salienceCondition, day, runid, TaskInterval, RewardTrialRanked, Construal_QuestionText, Construal_AnswerText, Construal_Condition, construal_trialUp, construal_trialComplete, trials_set1.thisRepN, trials_set1.thisTrialN, trials_set1.thisN, trials_set1.thisIndex, participant, session, run, k_val, designDir, total_time_limit, date, expName, frameRate
5, 185.65400000000005, 1, 0.2820000000000391, , , , , , , 0, -1, -1, 0, 2000, 1, L, 0.6170000000000755, 0.01, 0.007498942093324559, , 1.24510642663, 15.054999999999893, 15.671999999999969, , 25, 30, 1, LL, 6, 27.200000000000003, 1, 2, 1, 1.3780989575, 58, How to read articles?,  Open a magazine., 4, 11.767999999999972, 13.80299999999994, 0, 0, 0, 0, 2000, 2, 1, 0.01, fmri_v320180222085601, 60, Thu Feb 22 2018 13:53:27 GMT-0800 (PST), stroop, 60, , , , , , , 0, -1, -1, 0, 2000, 1, L, 0.6170000000000755, 0.01, 0.007498942093324559, , 1.24510642663, 15.054999999999893, 15.671999999999969, , 25, 30, 1, LL, 6, 27.200000000000003, 1, 2, 1, 1.3780989575, 58, How to read articles?,  Open a magazine., 4, 11.767999999999972, 13.80299999999994, 0, 0, 0, 0, 2000, 2, 1, 0.01, fmri_v320180222085601, 60, Thu Feb 22 2018 13:53:27 GMT-0800 (PST), stroop, 60
, , 1, 0.28300000000001546, , , , , , , 0, -1, -1, 0, 2000, 2, L, 0.5489999999999782, 0.007498942093324559, 0.01, , 3.0382321188, 24.821999999999946, 25.370999999999924, , 25, 30, 1, SS, 8, 36.27042864326646, 1, 2, 1, 1.14809248803, 39, How to prepare meals?,  Follow recipes., 4, 19.733000000000004, 21.76899999999995, 0, 1, 1, 1, 2000, 2, 1, 0.01, fmri_v320180222085601, 60, Thu Feb 22 2018 13:53:27 GMT-0800 (PST), stroop, 60, , , , , , , 0, -1, -1, 0, 2000, 2, L, 0.5489999999999782, 0.007498942093324559, 0.01, , 3.0382321188, 24.821999999999946, 25.370999999999924, , 25, 30, 1, SS, 8, 36.27042864326646, 1, 2, 1, 1.14809248803, 39, How to prepare meals?,  Follow recipes., 4, 19.733000000000004, 21.76899999999995, 0, 1, 1, 1, 2000, 2, 1, 0.01, fmri_v320180222085601, 60, Thu Feb 22 2018 13:53:27 GMT-0800 (PST), stroop, 60
, , 1, 0.5009999999999764, , , , , , , 0, -1, -1, 0, 2000, 3, L, 1.933999999999969, 0.01, 0.01333521432163324, , 2.19354764713, 33.03699999999998, 34.97199999999992, , 25, 30, 1, SS, 1, 21.199999999999996, 1, 2, 1, 2.70500428597, 42, Why paint a picture?,  Make art., 2, 28.582999999999913, 30.835999999999956, 0, 2, 2, 2, 2000, 2, 1, 0.01, fmri_v320180222085601, 60, Thu Feb 22 2018 13:53:27 GMT-0800 (PST), stroop, 60, , , , , , , 0, -1, -1, 0, 2000, 3, L, 1.933999999999969, 0.01, 0.01333521432163324, , 2.19354764713, 33.03699999999998, 34.97199999999992, , 25, 30, 1, SS, 1, 21.199999999999996, 1, 2, 1, 2.70500428597, 42, Why paint a picture?,  Make art., 2, 28.582999999999913, 30.835999999999956, 0, 2, 2, 2, 2000, 2, 1, 0.01, fmri_v320180222085601, 60, Thu Feb 22 2018 13:53:27 GMT-0800 (PST), stroop, 60
, , 1, 0.5660000000000309, , , , , , , 0, -1, -1, 0, 2000, 4, R, 0.5330000000000155, 0.01333521432163324, 0.01, , 2.1844900923, 42.686999999999955, 43.21999999999997, , 25, 30, 1, LL, 7, 23.39788418664912, 1, 2, 1, 1.6374719187, 5, Why drink wine?,  Consume alcohol., 2, 38.166, 40.48499999999996, 0, 3, 3, 3, 2000, 2, 1, 0.01, fmri_v320180222085601, 60, Thu Feb 22 2018 13:53:27 GMT-0800 (PST), stroop, 60, , , , , , , 0, -1, -1, 0, 2000, 4, R, 0.5330000000000155, 0.01333521432163324, 0.01, , 2.1844900923, 42.686999999999955, 43.21999999999997, , 25, 30, 1, LL, 7, 23.39788418664912, 1, 2, 1, 1.6374719187, 5, Why drink wine?,  Consume alcohol., 2, 38.166, 40.48499999999996, 0, 3, 3, 3, 2000, 2, 1, 0.01, fmri_v320180222085601, 60, Thu Feb 22 2018 13:53:27 GMT-0800 (PST), stroop, 60
, , 2, 0.3809999999999718, , , , , , , 0, -1, -1, 0, 2000, 5, L, 0.46699999999998454, 0.01, 0.01333521432163324, , 2.25227136722, 50.884999999999934, 51.35199999999992, , 25, 30, 1, SS, 5, 26, 1, 2, 1, 2.96443399465, 46, How to feel secure?,  Save money., 6, 46.47999999999996, 48.61599999999993, 0, 4, 4, 4, 2000, 2, 1, 0.01, fmri_v320180222085601, 60, Thu Feb 22 2018 13:53:27 GMT-0800 (PST), stroop, 60, , , , , , , 0, -1, -1, 0, 2000, 5, L, 0.46699999999998454, 0.01, 0.01333521432163324, , 2.25227136722, 50.884999999999934, 51.35199999999992, , 25, 30, 1, SS, 5, 26, 1, 2, 1, 2.96443399465, 46, How to feel secure?,  Save money., 6, 46.47999999999996, 48.61599999999993, 0, 4, 4, 4, 2000, 2, 1, 0.01, fmri_v320180222085601, 60, Thu Feb 22 2018 13:53:27 GMT-0800 (PST), stroop, 60
, , , , , , , , , , 0, -1, -1, 0, 2000, 6, R, 0, 0.01333521432163324, 0.01333521432163324, , 1.54329473155, 52.356999999999914, 52.356999999999914, , 25, 30, 1, , 2, 17.397884186649105, 1, 2, 1, 1.34175447415, 17, How to feel sociable?,  Hold a party., 6, 52.353999999999985, 52.353999999999985, 0, 5, 5, 5, 2000, 2, 1, 0.01, fmri_v320180222085601, 60, Thu Feb 22 2018 13:53:27 GMT-0800 (PST), stroop, 60, , , , , , , 0, -1, -1, 0, 2000, 6, R, 0, 0.01333521432163324, 0.01333521432163324, , 1.54329473155, 52.356999999999914, 52.356999999999914, , 25, 30, 1, , 2, 17.397884186649105, 1, 2, 1, 1.34175447415, 17, How to feel sociable?,  Hold a party., 6, 52.353999999999985, 52.353999999999985, 0, 5, 5, 5, 2000, 2, 1, 0.01, fmri_v320180222085601, 60, Thu Feb 22 2018 13:53:27 GMT-0800 (PST), stroop, 60
, , , , , , , , , , 0, -1, -1, 0, 2000, 7, R, 0, 0.01333521432163324, 0.01333521432163324, , 1.3150585423, 52.35999999999996, 52.36099999999993, , 25, 30, 1, , 9, 25.79788418664911, 1, 2, 1, 3.461420406, 37, How to show ambition?,  Serve alcohol., 5, 52.35899999999998, 52.35899999999998, 0, 6, 6, 6, 2000, 2, 1, 0.01, fmri_v320180222085601, 60, Thu Feb 22 2018 13:53:27 GMT-0800 (PST), stroop, 60, , , , , , , 0, -1, -1, 0, 2000, 7, R, 0, 0.01333521432163324, 0.01333521432163324, , 1.3150585423, 52.35999999999996, 52.36099999999993, , 25, 30, 1, , 9, 25.79788418664911, 1, 2, 1, 3.461420406, 37, How to show ambition?,  Serve alcohol., 5, 52.35899999999998, 52.35899999999998, 0, 6, 6, 6, 2000, 2, 1, 0.01, fmri_v320180222085601, 60, Thu Feb 22 2018 13:53:27 GMT-0800 (PST), stroop, 60
, , , , , , , , , , 0, -1, -1, 0, 2000, 8, L, 0, 0.01333521432163324, 0.01333521432163324, , 2.39651791503, 52.363999999999976, 52.36599999999993, , 25, 30, 1, , 4, 19.797884186649128, 1, 2, 1, 2.61611258141, 25, How to make a purchase?,  Go shopping., 5, 52.36199999999991, 52.363, 0, 7, 7, 7, 2000, 2, 1, 0.01, fmri_v320180222085601, 60, Thu Feb 22 2018 13:53:27 GMT-0800 (PST), stroop, 60, , , , , , , 0, -1, -1, 0, 2000, 8, L, 0, 0.01333521432163324, 0.01333521432163324, , 2.39651791503, 52.363999999999976, 52.36599999999993, , 25, 30, 1, , 4, 19.797884186649128, 1, 2, 1, 2.61611258141, 25, How to make a purchase?,  Go shopping., 5, 52.36199999999991, 52.363, 0, 7, 7, 7, 2000, 2, 1, 0.01, fmri_v320180222085601, 60, Thu Feb 22 2018 13:53:27 GMT-0800 (PST), stroop, 60
, , , , , , , , , , 0, -1, -1, 0, 2000, 9, L, 0, 0.01333521432163324, 0.01333521432163324, , 2.53369749107, 52.36899999999997, 52.36999999999995, , 25, 30, 1, , 5, 20.997884186649113, 1, 2, 1, 1.14959500136, 19, Why drink coffee?,  Consume caffeine., 1, 52.367999999999995, 52.367999999999995, 0, 8, 8, 8, 2000, 2, 1, 0.01, fmri_v320180222085601, 60, Thu Feb 22 2018 13:53:27 GMT-0800 (PST), stroop, 60, , , , , , , 0, -1, -1, 0, 2000, 9, L, 0, 0.01333521432163324, 0.01333521432163324, , 2.53369749107, 52.36899999999997, 52.36999999999995, , 25, 30, 1, , 5, 20.997884186649113, 1, 2, 1, 1.14959500136, 19, Why drink coffee?,  Consume caffeine., 1, 52.367999999999995, 52.367999999999995, 0, 8, 8, 8, 2000, 2, 1, 0.01, fmri_v320180222085601, 60, Thu Feb 22 2018 13:53:27 GMT-0800 (PST), stroop, 60
, , , , , , , , , , 0, -1, -1, 0, 2000, 10, L, 0, 0.01333521432163324, 0.01333521432163324, , 1.00871456849, 52.3719999999999, 52.37399999999997, , 25, 30, 1, , 8, 24.597884186649107, 1, 2, 1, 1.24224585531, 55, Why use a comb?,  Write a song., 1, 52.370999999999924, 52.370999999999924, 0, 9, 9, 9, 2000, 2, 1, 0.01, fmri_v320180222085601, 60, Thu Feb 22 2018 13:53:27 GMT-0800 (PST), stroop, 60, , , , , , , 0, -1, -1, 0, 2000, 10, L, 0, 0.01333521432163324, 0.01333521432163324, , 1.00871456849, 52.3719999999999, 52.37399999999997, , 25, 30, 1, , 8, 24.597884186649107, 1, 2, 1, 1.24224585531, 55, Why use a comb?,  Write a song., 1, 52.370999999999924, 52.370999999999924, 0, 9, 9, 9, 2000, 2, 1, 0.01, fmri_v320180222085601, 60, Thu Feb 22 2018 13:53:27 GMT-0800 (PST), stroop, 60
, , , , , , , , , , 0, -1, -1, 0, 2000, 11, R, 0, 0.01333521432163324, 0.01333521432163324, , 2.98665053433, 52.37499999999994, 52.377999999999986, , 25, 30, 1, , 9, 25.79788418664911, 1, 2, 1, 1.44109322202, 51, Why show competence?,  Pass the time., 3, 52.37399999999997, 52.37499999999994, 0, 10, 10, 10, 2000, 2, 1, 0.01, fmri_v320180222085601, 60, Thu Feb 22 2018 13:53:27 GMT-0800 (PST), stroop, 60, , , , , , , 0, -1, -1, 0, 2000, 11, R, 0, 0.01333521432163324, 0.01333521432163324, , 2.98665053433, 52.37499999999994, 52.377999999999986, , 25, 30, 1, , 9, 25.79788418664911, 1, 2, 1, 1.44109322202, 51, Why show competence?,  Pass the time., 3, 52.37399999999997, 52.37499999999994, 0, 10, 10, 10, 2000, 2, 1, 0.01, fmri_v320180222085601, 60, Thu Feb 22 2018 13:53:27 GMT-0800 (PST), stroop, 60
, , , , , , , , , , 0, -1, -1, 0, 2000, 12, L, 0, 0.01333521432163324, 0.01333521432163324, , 6.16969085889, 52.37899999999996, 52.37999999999994, , 25, 30, 1, , 6, 22.197884186649116, 1, 2, 1, 1.38207873579, 56, Why make a purchase?,  Satisfy a need., 3, 52.377999999999986, 52.377999999999986, 0, 11, 11, 11, 2000, 2, 1, 0.01, fmri_v320180222085601, 60, Thu Feb 22 2018 13:53:27 GMT-0800 (PST), stroop, 60, , , , , , , 0, -1, -1, 0, 2000, 12, L, 0, 0.01333521432163324, 0.01333521432163324, , 6.16969085889, 52.37899999999996, 52.37999999999994, , 25, 30, 1, , 6, 22.197884186649116, 1, 2, 1, 1.38207873579, 56, Why make a purchase?,  Satisfy a need., 3, 52.377999999999986, 52.377999999999986, 0, 11, 11, 11, 2000, 2, 1, 0.01, fmri_v320180222085601, 60, Thu Feb 22 2018 13:53:27 GMT-0800 (PST), stroop, 60
, , , , , , , , , , 0, -1, -1, 0, 2000, 13, L, 0, 0.01333521432163324, 0.01333521432163324, , 2.25863226609, 52.38299999999998, 52.38399999999996, , 25, 30, 1, , 3, 18.59788418664912, 1, 2, 1, 1.70777407382, 43, How to avoid boredom?,  Entertain oneself., 6, 52.380999999999915, 52.380999999999915, 0, 12, 12, 12, 2000, 2, 1, 0.01, fmri_v320180222085601, 60, Thu Feb 22 2018 13:53:27 GMT-0800 (PST), stroop, 60, , , , , , , 0, -1, -1, 0, 2000, 13, L, 0, 0.01333521432163324, 0.01333521432163324, , 2.25863226609, 52.38299999999998, 52.38399999999996, , 25, 30, 1, , 3, 18.59788418664912, 1, 2, 1, 1.70777407382, 43, How to avoid boredom?,  Entertain oneself., 6, 52.380999999999915, 52.380999999999915, 0, 12, 12, 12, 2000, 2, 1, 0.01, fmri_v320180222085601, 60, Thu Feb 22 2018 13:53:27 GMT-0800 (PST), stroop, 60
, , , , , , , , , , 0, -1, -1, 0, 2000, 14, L, 0, 0.01333521432163324, 0.01333521432163324, , 1.13415733088, 52.38599999999991, 52.387, , 25, 30, 1, , 1, 16.197884186649116, 1, 2, 1, 1.6640462716, 34, How to show intellect?,  Share ideas., 6, 52.384999999999934, 52.38599999999991, 0, 13, 13, 13, 2000, 2, 1, 0.01, fmri_v320180222085601, 60, Thu Feb 22 2018 13:53:27 GMT-0800 (PST), stroop, 60, , , , , , , 0, -1, -1, 0, 2000, 14, L, 0, 0.01333521432163324, 0.01333521432163324, , 1.13415733088, 52.38599999999991, 52.387, , 25, 30, 1, , 1, 16.197884186649116, 1, 2, 1, 1.6640462716, 34, How to show intellect?,  Share ideas., 6, 52.384999999999934, 52.38599999999991, 0, 13, 13, 13, 2000, 2, 1, 0.01, fmri_v320180222085601, 60, Thu Feb 22 2018 13:53:27 GMT-0800 (PST), stroop, 60
, , , , , , , , , , 0, -1, -1, 0, 2000, 15, R, 0, 0.01333521432163324, 0.01333521432163324, , 1.97987210788, 52.38999999999993, 52.390999999999906, , 25, 30, 1, , 4, 19.797884186649128, 1, 2, 1, 2.05024370543, 1, Why crack eggs?,  Make breakfast., 1, 52.38799999999998, 52.38899999999995, 0, 14, 14, 14, 2000, 2, 1, 0.01, fmri_v320180222085601, 60, Thu Feb 22 2018 13:53:27 GMT-0800 (PST), stroop, 60, , , , , , , 0, -1, -1, 0, 2000, 15, R, 0, 0.01333521432163324, 0.01333521432163324, , 1.97987210788, 52.38999999999993, 52.390999999999906, , 25, 30, 1, , 4, 19.797884186649128, 1, 2, 1, 2.05024370543, 1, Why crack eggs?,  Make breakfast., 1, 52.38799999999998, 52.38899999999995, 0, 14, 14, 14, 2000, 2, 1, 0.01, fmri_v320180222085601, 60, Thu Feb 22 2018 13:53:27 GMT-0800 (PST), stroop, 60
, , , , , , , , , , 0, -1, -1, 0, 2000, 16, R, 0, 0.01333521432163324, 0.01333521432163324, , 1.64768287314, 52.39299999999997, 52.39299999999997, , 25, 30, 1, , 2, 17.397884186649105, 1, 2, 1, 3.29126674453, 18, Why lift a glass?,  Drink wine., 1, 52.390999999999906, 52.390999999999906, 0, 15, 15, 15, 2000, 2, 1, 0.01, fmri_v320180222085601, 60, Thu Feb 22 2018 13:53:27 GMT-0800 (PST), stroop, 60, , , , , , , 0, -1, -1, 0, 2000, 16, R, 0, 0.01333521432163324, 0.01333521432163324, , 1.64768287314, 52.39299999999997, 52.39299999999997, , 25, 30, 1, , 2, 17.397884186649105, 1, 2, 1, 3.29126674453, 18, Why lift a glass?,  Drink wine., 1, 52.390999999999906, 52.390999999999906, 0, 15, 15, 15, 2000, 2, 1, 0.01, fmri_v320180222085601, 60, Thu Feb 22 2018 13:53:27 GMT-0800 (PST), stroop, 60
, , , , , , , , , , 0, -1, -1, 0, 2000, 17, R, 0, 0.01333521432163324, 0.01333521432163324, , 1.13500511285, 52.39399999999995, 52.394999999999925, , 25, 30, 1, , 5, 20.997884186649113, 1, 2, 1, 4.10877815929, 30, How to save money?,  Clip coupons., 5, 52.39399999999995, 52.39399999999995, 0, 16, 16, 16, 2000, 2, 1, 0.01, fmri_v320180222085601, 60, Thu Feb 22 2018 13:53:27 GMT-0800 (PST), stroop, 60, , , , , , , 0, -1, -1, 0, 2000, 17, R, 0, 0.01333521432163324, 0.01333521432163324, , 1.13500511285, 52.39399999999995, 52.394999999999925, , 25, 30, 1, , 5, 20.997884186649113, 1, 2, 1, 4.10877815929, 30, How to save money?,  Clip coupons., 5, 52.39399999999995, 52.39399999999995, 0, 16, 16, 16, 2000, 2, 1, 0.01, fmri_v320180222085601, 60, Thu Feb 22 2018 13:53:27 GMT-0800 (PST), stroop, 60
, , , , , , , , , , 0, -1, -1, 0, 2000, 18, R, 0, 0.01333521432163324, 0.01333521432163324, , 1.6917724932, 52.39699999999999, 52.39799999999997, , 25, 30, 1, , 6, 22.197884186649116, 1, 2, 1, 1.81744363077, 54, How to consume alcohol?,  Drink wine., 5, 52.3959999999999, 52.3959999999999, 0, 17, 17, 17, 2000, 2, 1, 0.01, fmri_v320180222085601, 60, Thu Feb 22 2018 13:53:27 GMT-0800 (PST), stroop, 60, , , , , , , 0, -1, -1, 0, 2000, 18, R, 0, 0.01333521432163324, 0.01333521432163324, , 1.6917724932, 52.39699999999999, 52.39799999999997, , 25, 30, 1, , 6, 22.197884186649116, 1, 2, 1, 1.81744363077, 54, How to consume alcohol?,  Drink wine., 5, 52.3959999999999, 52.3959999999999, 0, 17, 17, 17, 2000, 2, 1, 0.01, fmri_v320180222085601, 60, Thu Feb 22 2018 13:53:27 GMT-0800 (PST), stroop, 60
, , , , , , , , , , 0, -1, -1, 0, 2000, 19, R, 0, 0.01333521432163324, 0.01333521432163324, , 1.42354126609, 52.398999999999944, 52.39999999999992, , 25, 30, 1, , 1, 16.197884186649116, 1, 2, 1, 4.72112228045, 35, Why clip coupons?,  Save money., 2, 52.39799999999997, 52.398999999999944, 0, 18, 18, 18, 2000, 2, 1, 0.01, fmri_v320180222085601, 60, Thu Feb 22 2018 13:53:27 GMT-0800 (PST), stroop, 60, , , , , , , 0, -1, -1, 0, 2000, 19, R, 0, 0.01333521432163324, 0.01333521432163324, , 1.42354126609, 52.398999999999944, 52.39999999999992, , 25, 30, 1, , 1, 16.197884186649116, 1, 2, 1, 4.72112228045, 35, Why clip coupons?,  Save money., 2, 52.39799999999997, 52.398999999999944, 0, 18, 18, 18, 2000, 2, 1, 0.01, fmri_v320180222085601, 60, Thu Feb 22 2018 13:53:27 GMT-0800 (PST), stroop, 60
, , , , , , , , , , 0, -1, -1, 0, 2000, 20, R, 0, 0.01333521432163324, 0.01333521432163324, , 1.80093890586, 52.40199999999999, 52.40299999999996, , 25, 30, 1, , 9, 25.79788418664911, 1, 2, 1, 1.85390636829, 41, Why consume caffeine?,  Stay alert., 2, 52.4009999999999, 52.40199999999999, 0, 19, 19, 19, 2000, 2, 1, 0.01, fmri_v320180222085601, 60, Thu Feb 22 2018 13:53:27 GMT-0800 (PST), stroop, 60, , , , , , , 0, -1, -1, 0, 2000, 20, R, 0, 0.01333521432163324, 0.01333521432163324, , 1.80093890586, 52.40199999999999, 52.40299999999996, , 25, 30, 1, , 9, 25.79788418664911, 1, 2, 1, 1.85390636829, 41, Why consume caffeine?,  Stay alert., 2, 52.4009999999999, 52.40199999999999, 0, 19, 19, 19, 2000, 2, 1, 0.01, fmri_v320180222085601, 60, Thu Feb 22 2018 13:53:27 GMT-0800 (PST), stroop, 60
, , , , , , , , , , 0, -1, -1, 0, 2000, 21, R, 0, 0.01333521432163324, 0.01333521432163324, , 2.29997725004, 52.404999999999916, 52.40699999999998, , 25, 30, 1, , 7, 23.39788418664912, 1, 2, 1, 1.05704887964, 22, Why finish a job?,  Feel productive., 3, 52.40299999999996, 52.40399999999994, 0, 20, 20, 20, 2000, 2, 1, 0.01, fmri_v320180222085601, 60, Thu Feb 22 2018 13:53:27 GMT-0800 (PST), stroop, 60, , , , , , , 0, -1, -1, 0, 2000, 21, R, 0, 0.01333521432163324, 0.01333521432163324, , 2.29997725004, 52.404999999999916, 52.40699999999998, , 25, 30, 1, , 7, 23.39788418664912, 1, 2, 1, 1.05704887964, 22, Why finish a job?,  Feel productive., 3, 52.40299999999996, 52.40399999999994, 0, 20, 20, 20, 2000, 2, 1, 0.01, fmri_v320180222085601, 60, Thu Feb 22 2018 13:53:27 GMT-0800 (PST), stroop, 60
, , , , , , , , , , 0, -1, -1, 0, 2000, 22, L, 0, 0.01333521432163324, 0.01333521432163324, , 1.38610725092, 52.40799999999996, 52.408999999999935, , 25, 30, 1, , 3, 18.59788418664912, 1, 2, 1, 1.59503639826, 8, Why contact a friend?,  Feel connected., 3, 52.40699999999998, 52.40799999999996, 0, 21, 21, 21, 2000, 2, 1, 0.01, fmri_v320180222085601, 60, Thu Feb 22 2018 13:53:27 GMT-0800 (PST), stroop, 60, , , , , , , 0, -1, -1, 0, 2000, 22, L, 0, 0.01333521432163324, 0.01333521432163324, , 1.38610725092, 52.40799999999996, 52.408999999999935, , 25, 30, 1, , 3, 18.59788418664912, 1, 2, 1, 1.59503639826, 8, Why contact a friend?,  Feel connected., 3, 52.40699999999998, 52.40799999999996, 0, 21, 21, 21, 2000, 2, 1, 0.01, fmri_v320180222085601, 60, Thu Feb 22 2018 13:53:27 GMT-0800 (PST), stroop, 60
, , , , , , , , , , 0, -1, -1, 0, 2000, 23, R, 0, 0.01333521432163324, 0.01333521432163324, , 1.18166416721, 52.40999999999991, 52.41199999999998, , 25, 30, 1, , 4, 19.797884186649128, 1, 2, 1, 1.02547624368, 38, How to give applause?,  Clap hands., 4, 52.408999999999935, 52.40999999999991, 0, 22, 22, 22, 2000, 2, 1, 0.01, fmri_v320180222085601, 60, Thu Feb 22 2018 13:53:27 GMT-0800 (PST), stroop, 60, , , , , , , 0, -1, -1, 0, 2000, 23, R, 0, 0.01333521432163324, 0.01333521432163324, , 1.18166416721, 52.40999999999991, 52.41199999999998, , 25, 30, 1, , 4, 19.797884186649128, 1, 2, 1, 1.02547624368, 38, How to give applause?,  Clap hands., 4, 52.408999999999935, 52.40999999999991, 0, 22, 22, 22, 2000, 2, 1, 0.01, fmri_v320180222085601, 60, Thu Feb 22 2018 13:53:27 GMT-0800 (PST), stroop, 60
, , , , , , , , , , 0, -1, -1, 0, 2000, 24, L, 0, 0.01333521432163324, 0.01333521432163324, , 1.51472681456, 52.41499999999991, 52.41499999999991, , 25, 30, 1, , 8, 24.597884186649107, 1, 2, 1, 1.31239503221, 57, How to make breakfast?,  Crack eggs., 4, 52.41199999999998, 52.41399999999993, 0, 23, 23, 23, 2000, 2, 1, 0.01, fmri_v320180222085601, 60, Thu Feb 22 2018 13:53:27 GMT-0800 (PST), stroop, 60, , , , , , , 0, -1, -1, 0, 2000, 24, L, 0, 0.01333521432163324, 0.01333521432163324, , 1.51472681456, 52.41499999999991, 52.41499999999991, , 25, 30, 1, , 8, 24.597884186649107, 1, 2, 1, 1.31239503221, 57, How to make breakfast?,  Crack eggs., 4, 52.41199999999998, 52.41399999999993, 0, 23, 23, 23, 2000, 2, 1, 0.01, fmri_v320180222085601, 60, Thu Feb 22 2018 13:53:27 GMT-0800 (PST), stroop, 60
, , , , , , , , , , 0, -1, -1, 0, 2000, 25, L, 0, 0.01333521432163324, 0.01333521432163324, , 1.35273373153, 52.41699999999997, 52.41799999999995, , 25, 30, 1, , 5, 20.997884186649113, 1, 2, 1, 1.05146847467, 59, How to participate in class?,  Raise a hand., 4, 52.416, 52.41699999999997, 0, 24, 24, 24, 2000, 2, 1, 0.01, fmri_v320180222085601, 60, Thu Feb 22 2018 13:53:27 GMT-0800 (PST), stroop, 60, , , , , , , 0, -1, -1, 0, 2000, 25, L, 0, 0.01333521432163324, 0.01333521432163324, , 1.35273373153, 52.41699999999997, 52.41799999999995, , 25, 30, 1, , 5, 20.997884186649113, 1, 2, 1, 1.05146847467, 59, How to participate in class?,  Raise a hand., 4, 52.416, 52.41699999999997, 0, 24, 24, 24, 2000, 2, 1, 0.01, fmri_v320180222085601, 60, Thu Feb 22 2018 13:53:27 GMT-0800 (PST), stroop, 60
, , , , , , , , , , 0, -1, -1, 0, 2000, 26, R, 0, 0.01333521432163324, 0.01333521432163324, , 1.19255493421, 52.42099999999999, 52.42099999999999, , 25, 30, 1, , 2, 17.397884186649105, 1, 2, 1, 1.02473107565, 0, How to give a lecture?,  Brush ones hair., 4, 52.41799999999995, 52.418999999999926, 0, 25, 25, 25, 2000, 2, 1, 0.01, fmri_v320180222085601, 60, Thu Feb 22 2018 13:53:27 GMT-0800 (PST), stroop, 60, , , , , , , 0, -1, -1, 0, 2000, 26, R, 0, 0.01333521432163324, 0.01333521432163324, , 1.19255493421, 52.42099999999999, 52.42099999999999, , 25, 30, 1, , 2, 17.397884186649105, 1, 2, 1, 1.02473107565, 0, How to give a lecture?,  Brush ones hair., 4, 52.41799999999995, 52.418999999999926, 0, 25, 25, 25, 2000, 2, 1, 0.01, fmri_v320180222085601, 60, Thu Feb 22 2018 13:53:27 GMT-0800 (PST), stroop, 60
, , , , , , , , , , 0, -1, -1, 0, 2000, 27, L, 0, 0.01333521432163324, 0.01333521432163324, , 2.50982616524, 52.42399999999992, 52.42399999999992, , 25, 30, 1, , 3, 18.59788418664912, 1, 2, 1, 2.9005982637, 3, How to express doubt?,  Use scissors., 5, 52.42199999999997, 52.422999999999945, 0, 26, 26, 26, 2000, 2, 1, 0.01, fmri_v320180222085601, 60, Thu Feb 22 2018 13:53:27 GMT-0800 (PST), stroop, 60, , , , , , , 0, -1, -1, 0, 2000, 27, L, 0, 0.01333521432163324, 0.01333521432163324, , 2.50982616524, 52.42399999999992, 52.42399999999992, , 25, 30, 1, , 3, 18.59788418664912, 1, 2, 1, 2.9005982637, 3, How to express doubt?,  Use scissors., 5, 52.42199999999997, 52.422999999999945, 0, 26, 26, 26, 2000, 2, 1, 0.01, fmri_v320180222085601, 60, Thu Feb 22 2018 13:53:27 GMT-0800 (PST), stroop, 60
, , , , , , , , , , 0, -1, -1, 0, 2000, 28, R, 0, 0.01333521432163324, 0.01333521432163324, , 1.23140344239, 52.426999999999964, 52.426999999999964, , 25, 30, 1, , 6, 22.197884186649116, 1, 2, 1, 1.09814288512, 20, How to avoid diseases?,  Kill germs., 5, 52.4249999999999, 52.4249999999999, 0, 27, 27, 27, 2000, 2, 1, 0.01, fmri_v320180222085601, 60, Thu Feb 22 2018 13:53:27 GMT-0800 (PST), stroop, 60, , , , , , , 0, -1, -1, 0, 2000, 28, R, 0, 0.01333521432163324, 0.01333521432163324, , 1.23140344239, 52.426999999999964, 52.426999999999964, , 25, 30, 1, , 6, 22.197884186649116, 1, 2, 1, 1.09814288512, 20, How to avoid diseases?,  Kill germs., 5, 52.4249999999999, 52.4249999999999, 0, 27, 27, 27, 2000, 2, 1, 0.01, fmri_v320180222085601, 60, Thu Feb 22 2018 13:53:27 GMT-0800 (PST), stroop, 60
, , , , , , , , , , 0, -1, -1, 0, 2000, 29, L, 0, 0.01333521432163324, 0.01333521432163324, , 1.74090402699, 52.42999999999989, 52.42999999999989, , 25, 30, 1, , 7, 23.39788418664912, 1, 2, 1, 2.40888211146, 50, How to live a long life?,  Avoid diseases., 6, 52.42799999999994, 52.42899999999992, 0, 28, 28, 28, 2000, 2, 1, 0.01, fmri_v320180222085601, 60, Thu Feb 22 2018 13:53:27 GMT-0800 (PST), stroop, 60, , , , , , , 0, -1, -1, 0, 2000, 29, L, 0, 0.01333521432163324, 0.01333521432163324, , 1.74090402699, 52.42999999999989, 52.42999999999989, , 25, 30, 1, , 7, 23.39788418664912, 1, 2, 1, 2.40888211146, 50, How to live a long life?,  Avoid diseases., 6, 52.42799999999994, 52.42899999999992, 0, 28, 28, 28, 2000, 2, 1, 0.01, fmri_v320180222085601, 60, Thu Feb 22 2018 13:53:27 GMT-0800 (PST), stroop, 60
, , , , , , , , , , 0, -1, -1, 0, 2000, 30, R, 0, 0.01333521432163324, 0.01333521432163324, , 3.07313671453, 52.43199999999996, 52.432999999999936, , 25, 30, 1, , 9, 25.79788418664911, 1, 2, 1, 3.58178097562, 14, How to show humility?,  Build muscles., 6, 52.42999999999989, 52.43199999999996, 0, 29, 29, 29, 2000, 2, 1, 0.01, fmri_v320180222085601, 60, Thu Feb 22 2018 13:53:27 GMT-0800 (PST), stroop, 60, , , , , , , 0, -1, -1, 0, 2000, 30, R, 0, 0.01333521432163324, 0.01333521432163324, , 3.07313671453, 52.43199999999996, 52.432999999999936, , 25, 30, 1, , 9, 25.79788418664911, 1, 2, 1, 3.58178097562, 14, How to show humility?,  Build muscles., 6, 52.42999999999989, 52.43199999999996, 0, 29, 29, 29, 2000, 2, 1, 0.01, fmri_v320180222085601, 60, Thu Feb 22 2018 13:53:27 GMT-0800 (PST), stroop, 60
, , , , , , , , , , 0, -1, -1, 0, 2000, 31, R, 0, 0.01333521432163324, 0.01333521432163324, , 3.02314022647, 52.43399999999991, 52.435, , 25, 30, 1, , 4, 19.797884186649128, 1, 2, 1, 2.77317077733, 40, Why cut paper?,  Clip coupons., 1, 52.432999999999936, 52.43399999999991, 0, 30, 30, 30, 2000, 2, 1, 0.01, fmri_v320180222085601, 60, Thu Feb 22 2018 13:53:27 GMT-0800 (PST), stroop, 60, , , , , , , 0, -1, -1, 0, 2000, 31, R, 0, 0.01333521432163324, 0.01333521432163324, , 3.02314022647, 52.43399999999991, 52.435, , 25, 30, 1, , 4, 19.797884186649128, 1, 2, 1, 2.77317077733, 40, Why cut paper?,  Clip coupons., 1, 52.432999999999936, 52.43399999999991, 0, 30, 30, 30, 2000, 2, 1, 0.01, fmri_v320180222085601, 60, Thu Feb 22 2018 13:53:27 GMT-0800 (PST), stroop, 60
, , , , , , , , , , 0, -1, -1, 0, 2000, 32, L, 0, 0.01333521432163324, 0.01333521432163324, , 3.40201709992, 52.43599999999998, 52.43799999999993, , 25, 30, 1, , 8, 24.597884186649107, 1, 2, 1, 2.32552213836, 36, Why throw away trash?,  Make a list., 1, 52.435, 52.435, 0, 31, 31, 31, 2000, 2, 1, 0.01, fmri_v320180222085601, 60, Thu Feb 22 2018 13:53:27 GMT-0800 (PST), stroop, 60, , , , , , , 0, -1, -1, 0, 2000, 32, L, 0, 0.01333521432163324, 0.01333521432163324, , 3.40201709992, 52.43599999999998, 52.43799999999993, , 25, 30, 1, , 8, 24.597884186649107, 1, 2, 1, 2.32552213836, 36, Why throw away trash?,  Make a list., 1, 52.435, 52.435, 0, 31, 31, 31, 2000, 2, 1, 0.01, fmri_v320180222085601, 60, Thu Feb 22 2018 13:53:27 GMT-0800 (PST), stroop, 60
, , , , , , , , , , 0, -1, -1, 0, 2000, 33, R, 0, 0.01333521432163324, 0.01333521432163324, , 1.06727662975, 52.43899999999991, 52.44, , 25, 30, 1, , 4, 19.797884186649128, 1, 2, 1, 1.10368071495, 21, Why make breakfast?,  Satisfy hunger., 2, 52.43899999999991, 52.43899999999991, 0, 32, 32, 32, 2000, 2, 1, 0.01, fmri_v320180222085601, 60, Thu Feb 22 2018 13:53:27 GMT-0800 (PST), stroop, 60, , , , , , , 0, -1, -1, 0, 2000, 33, R, 0, 0.01333521432163324, 0.01333521432163324, , 1.06727662975, 52.43899999999991, 52.44, , 25, 30, 1, , 4, 19.797884186649128, 1, 2, 1, 1.10368071495, 21, Why make breakfast?,  Satisfy hunger., 2, 52.43899999999991, 52.43899999999991, 0, 32, 32, 32, 2000, 2, 1, 0.01, fmri_v320180222085601, 60, Thu Feb 22 2018 13:53:27 GMT-0800 (PST), stroop, 60
, , , , , , , , , , 0, -1, -1, 0, 2000, 34, R, 0, 0.01333521432163324, 0.01333521432163324, , 2.10216856786, 52.44199999999995, 52.44299999999993, , 25, 30, 1, , 8, 24.597884186649107, 1, 2, 1, 1.75091865756, 7, Why consume medicine?,  Reduce pain., 2, 52.440999999999974, 52.440999999999974, 0, 33, 33, 33, 2000, 2, 1, 0.01, fmri_v320180222085601, 60, Thu Feb 22 2018 13:53:27 GMT-0800 (PST), stroop, 60, , , , , , , 0, -1, -1, 0, 2000, 34, R, 0, 0.01333521432163324, 0.01333521432163324, , 2.10216856786, 52.44199999999995, 52.44299999999993, , 25, 30, 1, , 8, 24.597884186649107, 1, 2, 1, 1.75091865756, 7, Why consume medicine?,  Reduce pain., 2, 52.440999999999974, 52.440999999999974, 0, 33, 33, 33, 2000, 2, 1, 0.01, fmri_v320180222085601, 60, Thu Feb 22 2018 13:53:27 GMT-0800 (PST), stroop, 60
, , , , , , , , , , 0, -1, -1, 0, 2000, 35, L, 0, 0.01333521432163324, 0.01333521432163324, , 1.58719043355, 52.4439999999999, 52.44499999999999, , 25, 30, 1, , 9, 25.79788418664911, 1, 2, 1, 2.57713626469, 45, Why show courtesy?,  Make a friend., 3, 52.44299999999993, 52.44299999999993, 0, 34, 34, 34, 2000, 2, 1, 0.01, fmri_v320180222085601, 60, Thu Feb 22 2018 13:53:27 GMT-0800 (PST), stroop, 60, , , , , , , 0, -1, -1, 0, 2000, 35, L, 0, 0.01333521432163324, 0.01333521432163324, , 1.58719043355, 52.4439999999999, 52.44499999999999, , 25, 30, 1, , 9, 25.79788418664911, 1, 2, 1, 2.57713626469, 45, Why show courtesy?,  Make a friend., 3, 52.44299999999993, 52.44299999999993, 0, 34, 34, 34, 2000, 2, 1, 0.01, fmri_v320180222085601, 60, Thu Feb 22 2018 13:53:27 GMT-0800 (PST), stroop, 60
, , , , , , , , , , 0, -1, -1, 0, 2000, 36, L, 0, 0.01333521432163324, 0.01333521432163324, , 2.04246573058, 52.44999999999999, 52.450999999999965, , 25, 30, 1, , 2, 17.397884186649105, 1, 2, 1, 1.45346865842, 23, Why keep a memory?,  Feel nostalgia., 3, 52.44799999999992, 52.44799999999992, 0, 35, 35, 35, 2000, 2, 1, 0.01, fmri_v320180222085601, 60, Thu Feb 22 2018 13:53:27 GMT-0800 (PST), stroop, 60, , , , , , , 0, -1, -1, 0, 2000, 36, L, 0, 0.01333521432163324, 0.01333521432163324, , 2.04246573058, 52.44999999999999, 52.450999999999965, , 25, 30, 1, , 2, 17.397884186649105, 1, 2, 1, 1.45346865842, 23, Why keep a memory?,  Feel nostalgia., 3, 52.44799999999992, 52.44799999999992, 0, 35, 35, 35, 2000, 2, 1, 0.01, fmri_v320180222085601, 60, Thu Feb 22 2018 13:53:27 GMT-0800 (PST), stroop, 60
, , , , , , , , , , 0, -1, -1, 0, 2000, 37, R, 0, 0.01333521432163324, 0.01333521432163324, , 1.53583830223, 52.453999999999894, 52.454999999999984, , 25, 30, 1, , 3, 18.59788418664912, 1, 2, 1, 2.10893182948, 16, How to make a donation?,  Mix a cocktail., 5, 52.45199999999994, 52.45199999999994, 0, 36, 36, 36, 2000, 2, 1, 0.01, fmri_v320180222085601, 60, Thu Feb 22 2018 13:53:27 GMT-0800 (PST), stroop, 60, , , , , , , 0, -1, -1, 0, 2000, 37, R, 0, 0.01333521432163324, 0.01333521432163324, , 1.53583830223, 52.453999999999894, 52.454999999999984, , 25, 30, 1, , 3, 18.59788418664912, 1, 2, 1, 2.10893182948, 16, How to make a donation?,  Mix a cocktail., 5, 52.45199999999994, 52.45199999999994, 0, 36, 36, 36, 2000, 2, 1, 0.01, fmri_v320180222085601, 60, Thu Feb 22 2018 13:53:27 GMT-0800 (PST), stroop, 60
, , , , , , , , , , 0, -1, -1, 0, 2000, 38, L, 0, 0.01333521432163324, 0.01333521432163324, , 1.49846423777, 52.45999999999998, 52.460999999999956, , 25, 30, 1, , 6, 22.197884186649116, 1, 2, 1, 2.5549564635, 53, How to get a promotion?,  Arrive on time., 5, 52.45699999999994, 52.45699999999994, 0, 37, 37, 37, 2000, 2, 1, 0.01, fmri_v320180222085601, 60, Thu Feb 22 2018 13:53:27 GMT-0800 (PST), stroop, 60, , , , , , , 0, -1, -1, 0, 2000, 38, L, 0, 0.01333521432163324, 0.01333521432163324, , 1.49846423777, 52.45999999999998, 52.460999999999956, , 25, 30, 1, , 6, 22.197884186649116, 1, 2, 1, 2.5549564635, 53, How to get a promotion?,  Arrive on time., 5, 52.45699999999994, 52.45699999999994, 0, 37, 37, 37, 2000, 2, 1, 0.01, fmri_v320180222085601, 60, Thu Feb 22 2018 13:53:27 GMT-0800 (PST), stroop, 60
, , , , , , , , , , 0, -1, -1, 0, 2000, 39, L, 0, 0.01333521432163324, 0.01333521432163324, , 2.37457896054, 52.46299999999991, 52.464999999999975, , 25, 30, 1, , 7, 23.39788418664912, 1, 2, 1, 2.33588884063, 27, How to dress formally?,  Wear ties. , 4, 52.46199999999993, 52.46299999999991, 0, 38, 38, 38, 2000, 2, 1, 0.01, fmri_v320180222085601, 60, Thu Feb 22 2018 13:53:27 GMT-0800 (PST), stroop, 60, , , , , , , 0, -1, -1, 0, 2000, 39, L, 0, 0.01333521432163324, 0.01333521432163324, , 2.37457896054, 52.46299999999991, 52.464999999999975, , 25, 30, 1, , 7, 23.39788418664912, 1, 2, 1, 2.33588884063, 27, How to dress formally?,  Wear ties. , 4, 52.46199999999993, 52.46299999999991, 0, 38, 38, 38, 2000, 2, 1, 0.01, fmri_v320180222085601, 60, Thu Feb 22 2018 13:53:27 GMT-0800 (PST), stroop, 60
, , , , , , , , , , 0, -1, -1, 0, 2000, 40, R, 0, 0.01333521432163324, 0.01333521432163324, , 2.85534067003, 52.46699999999993, 52.468999999999994, , 25, 30, 1, , 1, 16.197884186649116, 1, 2, 1, 1.82087200141, 9, How to drink wine?,  Open a bottle. , 4, 52.464999999999975, 52.46599999999995, 0, 39, 39, 39, 2000, 2, 1, 0.01, fmri_v320180222085601, 60, Thu Feb 22 2018 13:53:27 GMT-0800 (PST), stroop, 60, , , , , , , 0, -1, -1, 0, 2000, 40, R, 0, 0.01333521432163324, 0.01333521432163324, , 2.85534067003, 52.46699999999993, 52.468999999999994, , 25, 30, 1, , 1, 16.197884186649116, 1, 2, 1, 1.82087200141, 9, How to drink wine?,  Open a bottle. , 4, 52.464999999999975, 52.46599999999995, 0, 39, 39, 39, 2000, 2, 1, 0.01, fmri_v320180222085601, 60, Thu Feb 22 2018 13:53:27 GMT-0800 (PST), stroop, 60
, , , , , , , , , , 0, -1, -1, 0, 2000, 41, R, 0, 0.01333521432163324, 0.01333521432163324, , 1.74359272758, 52.46999999999997, 52.47199999999992, , 25, 30, 1, , 8, 24.597884186649107, 1, 2, 1, 1.00359299789, 48, How to feel productive?,  Finish a job., 6, 52.468999999999994, 52.468999999999994, 0, 40, 40, 40, 2000, 2, 1, 0.01, fmri_v320180222085601, 60, Thu Feb 22 2018 13:53:27 GMT-0800 (PST), stroop, 60, , , , , , , 0, -1, -1, 0, 2000, 41, R, 0, 0.01333521432163324, 0.01333521432163324, , 1.74359272758, 52.46999999999997, 52.47199999999992, , 25, 30, 1, , 8, 24.597884186649107, 1, 2, 1, 1.00359299789, 48, How to feel productive?,  Finish a job., 6, 52.468999999999994, 52.468999999999994, 0, 40, 40, 40, 2000, 2, 1, 0.01, fmri_v320180222085601, 60, Thu Feb 22 2018 13:53:27 GMT-0800 (PST), stroop, 60
, , , , , , , , , , 0, -1, -1, 0, 2000, 42, L, 0, 0.01333521432163324, 0.01333521432163324, , 1.06570964645, 52.47399999999999, 52.474999999999966, , 25, 30, 1, , 1, 16.197884186649116, 1, 2, 1, 1.04728600567, 4, How to feel connected?,  Contact a friend., 6, 52.47199999999992, 52.47199999999992, 0, 41, 41, 41, 2000, 2, 1, 0.01, fmri_v320180222085601, 60, Thu Feb 22 2018 13:53:27 GMT-0800 (PST), stroop, 60, , , , , , , 0, -1, -1, 0, 2000, 42, L, 0, 0.01333521432163324, 0.01333521432163324, , 1.06570964645, 52.47399999999999, 52.474999999999966, , 25, 30, 1, , 1, 16.197884186649116, 1, 2, 1, 1.04728600567, 4, How to feel connected?,  Contact a friend., 6, 52.47199999999992, 52.47199999999992, 0, 41, 41, 41, 2000, 2, 1, 0.01, fmri_v320180222085601, 60, Thu Feb 22 2018 13:53:27 GMT-0800 (PST), stroop, 60
, , , , , , , , , , 0, -1, -1, 0, 2000, 43, R, 0, 0.01333521432163324, 0.01333521432163324, , 1.23692062825, 52.47699999999992, 52.477999999999895, , 25, 30, 1, , 6, 22.197884186649116, 1, 2, 1, 1.12450829492, 24, Why use a remote?,  Watch television., 1, 52.474999999999966, 52.474999999999966, 0, 42, 42, 42, 2000, 2, 1, 0.01, fmri_v320180222085601, 60, Thu Feb 22 2018 13:53:27 GMT-0800 (PST), stroop, 60, , , , , , , 0, -1, -1, 0, 2000, 43, R, 0, 0.01333521432163324, 0.01333521432163324, , 1.23692062825, 52.47699999999992, 52.477999999999895, , 25, 30, 1, , 6, 22.197884186649116, 1, 2, 1, 1.12450829492, 24, Why use a remote?,  Watch television., 1, 52.474999999999966, 52.474999999999966, 0, 42, 42, 42, 2000, 2, 1, 0.01, fmri_v320180222085601, 60, Thu Feb 22 2018 13:53:27 GMT-0800 (PST), stroop, 60
, , , , , , , , , , 0, -1, -1, 0, 2000, 44, R, 0, 0.01333521432163324, 0.01333521432163324, , 2.54606021685, 52.47999999999996, 52.48099999999994, , 25, 30, 1, , 4, 19.797884186649128, 1, 2, 1, 1.78274587954, 11, Why dial numbers?,  Make a phone call., 1, 52.477999999999895, 52.478999999999985, 0, 43, 43, 43, 2000, 2, 1, 0.01, fmri_v320180222085601, 60, Thu Feb 22 2018 13:53:27 GMT-0800 (PST), stroop, 60, , , , , , , 0, -1, -1, 0, 2000, 44, R, 0, 0.01333521432163324, 0.01333521432163324, , 2.54606021685, 52.47999999999996, 52.48099999999994, , 25, 30, 1, , 4, 19.797884186649128, 1, 2, 1, 1.78274587954, 11, Why dial numbers?,  Make a phone call., 1, 52.477999999999895, 52.478999999999985, 0, 43, 43, 43, 2000, 2, 1, 0.01, fmri_v320180222085601, 60, Thu Feb 22 2018 13:53:27 GMT-0800 (PST), stroop, 60
, , , , , , , , , , 0, -1, -1, 0, 2000, 45, R, 0, 0.01333521432163324, 0.01333521432163324, , 3.65437732682, 52.48399999999998, 52.48599999999993, , 25, 30, 1, , 3, 18.59788418664912, 1, 2, 1, 1.84648107611, 33, Why satisfy hunger?,  Show an ability., 3, 52.481999999999914, 52.483000000000004, 0, 44, 44, 44, 2000, 2, 1, 0.01, fmri_v320180222085601, 60, Thu Feb 22 2018 13:53:27 GMT-0800 (PST), stroop, 60, , , , , , , 0, -1, -1, 0, 2000, 45, R, 0, 0.01333521432163324, 0.01333521432163324, , 3.65437732682, 52.48399999999998, 52.48599999999993, , 25, 30, 1, , 3, 18.59788418664912, 1, 2, 1, 1.84648107611, 33, Why satisfy hunger?,  Show an ability., 3, 52.481999999999914, 52.483000000000004, 0, 44, 44, 44, 2000, 2, 1, 0.01, fmri_v320180222085601, 60, Thu Feb 22 2018 13:53:27 GMT-0800 (PST), stroop, 60
, , , , , , , , , , 0, -1, -1, 0, 2000, 46, L, 0, 0.01333521432163324, 0.01333521432163324, , 2.63670793449, 52.488999999999976, 52.48999999999995, , 25, 30, 1, , 2, 17.397884186649105, 1, 2, 1, 1.79401900961, 47, Why entertain others?,  Express a talent., 3, 52.488, 52.488, 0, 45, 45, 45, 2000, 2, 1, 0.01, fmri_v320180222085601, 60, Thu Feb 22 2018 13:53:27 GMT-0800 (PST), stroop, 60, , , , , , , 0, -1, -1, 0, 2000, 46, L, 0, 0.01333521432163324, 0.01333521432163324, , 2.63670793449, 52.488999999999976, 52.48999999999995, , 25, 30, 1, , 2, 17.397884186649105, 1, 2, 1, 1.79401900961, 47, Why entertain others?,  Express a talent., 3, 52.488, 52.488, 0, 45, 45, 45, 2000, 2, 1, 0.01, fmri_v320180222085601, 60, Thu Feb 22 2018 13:53:27 GMT-0800 (PST), stroop, 60
, , , , , , , , , , 0, -1, -1, 0, 2000, 47, L, 0, 0.01333521432163324, 0.01333521432163324, , 1.11500453579, 52.49399999999997, 52.49499999999995, , 25, 30, 1, , 5, 20.997884186649113, 1, 2, 1, 1.52376540842, 26, Why teach a class?,  Obey laws., 2, 52.492999999999995, 52.492999999999995, 0, 46, 46, 46, 2000, 2, 1, 0.01, fmri_v320180222085601, 60, Thu Feb 22 2018 13:53:27 GMT-0800 (PST), stroop, 60, , , , , , , 0, -1, -1, 0, 2000, 47, L, 0, 0.01333521432163324, 0.01333521432163324, , 1.11500453579, 52.49399999999997, 52.49499999999995, , 25, 30, 1, , 5, 20.997884186649113, 1, 2, 1, 1.52376540842, 26, Why teach a class?,  Obey laws., 2, 52.492999999999995, 52.492999999999995, 0, 46, 46, 46, 2000, 2, 1, 0.01, fmri_v320180222085601, 60, Thu Feb 22 2018 13:53:27 GMT-0800 (PST), stroop, 60
, , , , , , , , , , 0, -1, -1, 0, 2000, 48, L, 0, 0.01333521432163324, 0.01333521432163324, , 1.81968232217, 52.49999999999994, 52.50099999999992, , 25, 30, 1, , 7, 23.39788418664912, 1, 2, 1, 4.0042234826, 12, Why make a list?,  Plan ahead., 2, 52.495999999999924, 52.49999999999994, 0, 47, 47, 47, 2000, 2, 1, 0.01, fmri_v320180222085601, 60, Thu Feb 22 2018 13:53:27 GMT-0800 (PST), stroop, 60, , , , , , , 0, -1, -1, 0, 2000, 48, L, 0, 0.01333521432163324, 0.01333521432163324, , 1.81968232217, 52.49999999999994, 52.50099999999992, , 25, 30, 1, , 7, 23.39788418664912, 1, 2, 1, 4.0042234826, 12, Why make a list?,  Plan ahead., 2, 52.495999999999924, 52.49999999999994, 0, 47, 47, 47, 2000, 2, 1, 0.01, fmri_v320180222085601, 60, Thu Feb 22 2018 13:53:27 GMT-0800 (PST), stroop, 60
, , , , , , , , , , 0, -1, -1, 0, 2000, 49, R, 0, 0.01333521432163324, 0.01333521432163324, , 1.47397213838, 52.50399999999996, 52.50499999999994, , 25, 30, 1, , 7, 23.39788418664912, 1, 2, 1, 1.33320253094, 49, How to avoid mistakes?,  Obey laws., 6, 52.501999999999896, 52.502999999999986, 0, 48, 48, 48, 2000, 2, 1, 0.01, fmri_v320180222085601, 60, Thu Feb 22 2018 13:53:27 GMT-0800 (PST), stroop, 60, , , , , , , 0, -1, -1, 0, 2000, 49, R, 0, 0.01333521432163324, 0.01333521432163324, , 1.47397213838, 52.50399999999996, 52.50499999999994, , 25, 30, 1, , 7, 23.39788418664912, 1, 2, 1, 1.33320253094, 49, How to avoid mistakes?,  Obey laws., 6, 52.501999999999896, 52.502999999999986, 0, 48, 48, 48, 2000, 2, 1, 0.01, fmri_v320180222085601, 60, Thu Feb 22 2018 13:53:27 GMT-0800 (PST), stroop, 60
, , , , , , , , , , 0, -1, -1, 0, 2000, 50, L, 0, 0.01333521432163324, 0.01333521432163324, , 2.44942089016, 52.507000000000005, 52.50799999999998, , 25, 30, 1, , 5, 20.997884186649113, 1, 2, 1, 1.62358584923, 13, How to achieve success?,  Get a promotion., 6, 52.505999999999915, 52.505999999999915, 0, 49, 49, 49, 2000, 2, 1, 0.01, fmri_v320180222085601, 60, Thu Feb 22 2018 13:53:27 GMT-0800 (PST), stroop, 60, , , , , , , 0, -1, -1, 0, 2000, 50, L, 0, 0.01333521432163324, 0.01333521432163324, , 2.44942089016, 52.507000000000005, 52.50799999999998, , 25, 30, 1, , 5, 20.997884186649113, 1, 2, 1, 1.62358584923, 13, How to achieve success?,  Get a promotion., 6, 52.505999999999915, 52.505999999999915, 0, 49, 49, 49, 2000, 2, 1, 0.01, fmri_v320180222085601, 60, Thu Feb 22 2018 13:53:27 GMT-0800 (PST), stroop, 60
, , , , , , , , , , 0, -1, -1, 0, 2000, 51, R, 0, 0.01333521432163324, 0.01333521432163324, , 2.78338620739, 52.509999999999934, 52.51099999999991, , 25, 30, 1, , 1, 16.197884186649116, 1, 2, 1, 2.01676467028, 31, Why wash ones hands?,  Kill germs., 1, 52.50899999999996, 52.50899999999996, 0, 50, 50, 50, 2000, 2, 1, 0.01, fmri_v320180222085601, 60, Thu Feb 22 2018 13:53:27 GMT-0800 (PST), stroop, 60, , , , , , , 0, -1, -1, 0, 2000, 51, R, 0, 0.01333521432163324, 0.01333521432163324, , 2.78338620739, 52.509999999999934, 52.51099999999991, , 25, 30, 1, , 1, 16.197884186649116, 1, 2, 1, 2.01676467028, 31, Why wash ones hands?,  Kill germs., 1, 52.50899999999996, 52.50899999999996, 0, 50, 50, 50, 2000, 2, 1, 0.01, fmri_v320180222085601, 60, Thu Feb 22 2018 13:53:27 GMT-0800 (PST), stroop, 60
, , , , , , , , , , 0, -1, -1, 0, 2000, 52, L, 0, 0.01333521432163324, 0.01333521432163324, , 1.2299912416, 52.51299999999998, 52.51399999999995, , 25, 30, 1, , 8, 24.597884186649107, 1, 2, 1, 1.09454414501, 6, Why sign ones name?,  Write a check., 1, 52.51099999999991, 52.512, 0, 51, 51, 51, 2000, 2, 1, 0.01, fmri_v320180222085601, 60, Thu Feb 22 2018 13:53:27 GMT-0800 (PST), stroop, 60, , , , , , , 0, -1, -1, 0, 2000, 52, L, 0, 0.01333521432163324, 0.01333521432163324, , 1.2299912416, 52.51299999999998, 52.51399999999995, , 25, 30, 1, , 8, 24.597884186649107, 1, 2, 1, 1.09454414501, 6, Why sign ones name?,  Write a check., 1, 52.51099999999991, 52.512, 0, 51, 51, 51, 2000, 2, 1, 0.01, fmri_v320180222085601, 60, Thu Feb 22 2018 13:53:27 GMT-0800 (PST), stroop, 60
, , , , , , , , , , 0, -1, -1, 0, 2000, 53, R, 0.00100000000009004, 0.01333521432163324, 0.01333521432163324, , 1.37443667948, 52.516999999999996, 52.51799999999997, , 25, 30, 1, , 3, 18.59788418664912, 1, 2, 1, 4.4822802826, 32, Why write an email?,  Send a message., 3, 52.51399999999995, 52.51499999999993, 0, 52, 52, 52, 2000, 2, 1, 0.01, fmri_v320180222085601, 60, Thu Feb 22 2018 13:53:27 GMT-0800 (PST), stroop, 60, , , , , , , 0, -1, -1, 0, 2000, 53, R, 0.00100000000009004, 0.01333521432163324, 0.01333521432163324, , 1.37443667948, 52.516999999999996, 52.51799999999997, , 25, 30, 1, , 3, 18.59788418664912, 1, 2, 1, 4.4822802826, 32, Why write an email?,  Send a message., 3, 52.51399999999995, 52.51499999999993, 0, 52, 52, 52, 2000, 2, 1, 0.01, fmri_v320180222085601, 60, Thu Feb 22 2018 13:53:27 GMT-0800 (PST), stroop, 60
, , , , , , , , , , 0, -1, -1, 0, 2000, 54, L, 0, 0.01333521432163324, 0.01333521432163324, , 2.39430744178, 52.5209999999999, 52.52299999999997, , 25, 30, 1, , 2, 17.397884186649105, 1, 2, 1, 1.05307301273, 10, Why make art?,  Show creativity., 3, 52.51799999999997, 52.51899999999995, 0, 53, 53, 53, 2000, 2, 1, 0.01, fmri_v320180222085601, 60, Thu Feb 22 2018 13:53:27 GMT-0800 (PST), stroop, 60, , , , , , , 0, -1, -1, 0, 2000, 54, L, 0, 0.01333521432163324, 0.01333521432163324, , 2.39430744178, 52.5209999999999, 52.52299999999997, , 25, 30, 1, , 2, 17.397884186649105, 1, 2, 1, 1.05307301273, 10, Why make art?,  Show creativity., 3, 52.51799999999997, 52.51899999999995, 0, 53, 53, 53, 2000, 2, 1, 0.01, fmri_v320180222085601, 60, Thu Feb 22 2018 13:53:27 GMT-0800 (PST), stroop, 60
, , , , , , , , , , 0, -1, -1, 0, 2000, 55, R, 0, 0.01333521432163324, 0.01333521432163324, , 1.30015176762, 52.5259999999999, 52.5259999999999, , 25, 30, 1, , 9, 25.79788418664911, 1, 2, 1, 2.9501951961, 28, Why lift weights?,  Build muscles., 2, 52.523999999999944, 52.523999999999944, 0, 54, 54, 54, 2000, 2, 1, 0.01, fmri_v320180222085601, 60, Thu Feb 22 2018 13:53:27 GMT-0800 (PST), stroop, 60, , , , , , , 0, -1, -1, 0, 2000, 55, R, 0, 0.01333521432163324, 0.01333521432163324, , 1.30015176762, 52.5259999999999, 52.5259999999999, , 25, 30, 1, , 9, 25.79788418664911, 1, 2, 1, 2.9501951961, 28, Why lift weights?,  Build muscles., 2, 52.523999999999944, 52.523999999999944, 0, 54, 54, 54, 2000, 2, 1, 0.01, fmri_v320180222085601, 60, Thu Feb 22 2018 13:53:27 GMT-0800 (PST), stroop, 60
, , , , , , , , , , 0, -1, -1, 0, 2000, 56, R, 0, 0.01333521432163324, 0.01333521432163324, , 1.67243099821, 52.52899999999994, 52.52899999999994, , 25, 30, 1, , 4, 19.797884186649128, 1, 2, 1, 1.03353644456, 44, Why watch television?,  Show competence., 2, 52.52699999999999, 52.52699999999999, 0, 55, 55, 55, 2000, 2, 1, 0.01, fmri_v320180222085601, 60, Thu Feb 22 2018 13:53:27 GMT-0800 (PST), stroop, 60, , , , , , , 0, -1, -1, 0, 2000, 56, R, 0, 0.01333521432163324, 0.01333521432163324, , 1.67243099821, 52.52899999999994, 52.52899999999994, , 25, 30, 1, , 4, 19.797884186649128, 1, 2, 1, 1.03353644456, 44, Why watch television?,  Show competence., 2, 52.52699999999999, 52.52699999999999, 0, 55, 55, 55, 2000, 2, 1, 0.01, fmri_v320180222085601, 60, Thu Feb 22 2018 13:53:27 GMT-0800 (PST), stroop, 60
, , , , , , , , , , 0, -1, -1, 0, 2000, 57, L, 0, 0.01333521432163324, 0.01333521432163324, , 1.43630158528, 52.53299999999996, 52.533999999999935, , 25, 30, 1, , 5, 20.997884186649113, 1, 2, 1, 3.34814922272, 52, How to take a picture?,  Point a camera., 4, 52.529999999999916, 52.531000000000006, 0, 56, 56, 56, 2000, 2, 1, 0.01, fmri_v320180222085601, 60, Thu Feb 22 2018 13:53:27 GMT-0800 (PST), stroop, 60, , , , , , , 0, -1, -1, 0, 2000, 57, L, 0, 0.01333521432163324, 0.01333521432163324, , 1.43630158528, 52.53299999999996, 52.533999999999935, , 25, 30, 1, , 5, 20.997884186649113, 1, 2, 1, 3.34814922272, 52, How to take a picture?,  Point a camera., 4, 52.529999999999916, 52.531000000000006, 0, 56, 56, 56, 2000, 2, 1, 0.01, fmri_v320180222085601, 60, Thu Feb 22 2018 13:53:27 GMT-0800 (PST), stroop, 60
, , , , , , , , , , 0, -1, -1, 0, 2000, 58, R, 0, 0.01333521432163324, 0.01333521432163324, , 1.78435214134, 52.53499999999991, 52.536, , 25, 30, 1, , 6, 22.197884186649116, 1, 2, 1, 1.01357632659, 29, How to make a list?,  Throw away trash., 4, 52.533999999999935, 52.533999999999935, 0, 57, 57, 57, 2000, 2, 1, 0.01, fmri_v320180222085601, 60, Thu Feb 22 2018 13:53:27 GMT-0800 (PST), stroop, 60, , , , , , , 0, -1, -1, 0, 2000, 58, R, 0, 0.01333521432163324, 0.01333521432163324, , 1.78435214134, 52.53499999999991, 52.536, , 25, 30, 1, , 6, 22.197884186649116, 1, 2, 1, 1.01357632659, 29, How to make a list?,  Throw away trash., 4, 52.533999999999935, 52.533999999999935, 0, 57, 57, 57, 2000, 2, 1, 0.01, fmri_v320180222085601, 60, Thu Feb 22 2018 13:53:27 GMT-0800 (PST), stroop, 60
, , , , , , , , , , 0, -1, -1, 0, 2000, 59, L, 0.0009999999999763531, 0.01333521432163324, 0.01333521432163324, , 4.16760163149, 52.53999999999991, 52.541, , 25, 30, 1, , 7, 23.39788418664912, 1, 2, 1, 3.21779203269, 2, How to teach others?,  Give a lecture., 5, 52.537999999999954, 52.53899999999993, 0, 58, 58, 58, 2000, 2, 1, 0.01, fmri_v320180222085601, 60, Thu Feb 22 2018 13:53:27 GMT-0800 (PST), stroop, 60, , , , , , , 0, -1, -1, 0, 2000, 59, L, 0.0009999999999763531, 0.01333521432163324, 0.01333521432163324, , 4.16760163149, 52.53999999999991, 52.541, , 25, 30, 1, , 7, 23.39788418664912, 1, 2, 1, 3.21779203269, 2, How to teach others?,  Give a lecture., 5, 52.537999999999954, 52.53899999999993, 0, 58, 58, 58, 2000, 2, 1, 0.01, fmri_v320180222085601, 60, Thu Feb 22 2018 13:53:27 GMT-0800 (PST), stroop, 60
, , , , , , , , , , 0, -1, -1, 0, 2000, 60, L, 0, 0.01333521432163324, 0.01333521432163324, , 2.06129423013, 52.5449999999999, 52.54599999999999, , 25, 30, 1, , 2, 17.397884186649105, 1, 2, 1, 1.58627645662, 15, How to write an email?,  Open a browser., 5, 52.54199999999997, 52.54199999999997, 0, 59, 59, 59, 2000, 2, 1, 0.01, fmri_v320180222085601, 60, Thu Feb 22 2018 13:53:27 GMT-0800 (PST), stroop, 60, , , , , , , 0, -1, -1, 0, 2000, 60, L, 0, 0.01333521432163324, 0.01333521432163324, , 2.06129423013, 52.5449999999999, 52.54599999999999, , 25, 30, 1, , 2, 17.397884186649105, 1, 2, 1, 1.58627645662, 15, How to write an email?,  Open a browser., 5, 52.54199999999997, 52.54199999999997, 0, 59, 59, 59, 2000, 2, 1, 0.01, fmri_v320180222085601, 60, Thu Feb 22 2018 13:53:27 GMT-0800 (PST), stroop, 60
