resp_fMRI.keys, resp_fMRI.rt, construal_resp.keys, construal_resp.rt, resp_trial.keys, resp_trial.rt, instructionLoop.thisRepN, instructionLoop.thisTrialN, instructionLoop.thisN, instructionLoop.thisIndex, blocks.thisRepN, blocks.thisTrialN, blocks.thisN, blocks.thisIndex, Subject, Trial, SSonLorR, RT, startingK, endingK, TrialStart, ITI, choiceUp, choiceMade, TrialOver, SSamount, LLamount, Condition, Choice, SSdelay, LLdelay, salienceCondition, day, runid, TaskInterval, RewardTrialRanked, Construal_QuestionText, Construal_AnswerText, Construal_Condition, construal_trialUp, construal_trialComplete, trials_set1.thisRepN, trials_set1.thisTrialN, trials_set1.thisN, trials_set1.thisIndex, participant, session, run, k_val, designDir, total_time_limit, date, expName, frameRate, finish_screen_end_response.keys, finish_screen_end_response.rt, instructionLoop.thisRepN, instructionLoop.thisTrialN, instructionLoop.thisN, instructionLoop.thisIndex, blocks.thisRepN, blocks.thisTrialN, blocks.thisN, blocks.thisIndex, Subject, Trial, SSonLorR, RT, startingK, endingK, TrialStart, ITI, choiceUp, choiceMade, TrialOver, SSamount, LLamount, Condition, Choice, SSdelay, LLdelay, salienceCondition, day, runid, TaskInterval, RewardTrialRanked, Construal_QuestionText, Construal_AnswerText, Construal_Condition, construal_trialUp, construal_trialComplete, trials_set1.thisRepN, trials_set1.thisTrialN, trials_set1.thisN, trials_set1.thisIndex, participant, session, run, k_val, designDir, total_time_limit, date, expName, frameRate
5, 0.575999999999965, 1, 0.49900000000002365, , , , , , , 0, -1, -1, 0, 2001, 1, L, 0.8659999999999854, 0.01, 0.01333521432163324, , 3.39794914005, 17.326999999999998, 18.192000000000007, , 16.026315789473685, 29, 1, SS, 5, 90, 0, 1, 1, 1.14244799152, 45, How to open a browser?,  Click a mouse., 4, 13.924000000000035, 16.17500000000001, 0, 0, 0, 0, 2001, 1, 1, 0.01, fmri_v320180222085601, 400, Wed Mar 21 2018 09:14:27 GMT-0700 (PDT), stroop, 60, , , , , , , 0, -1, -1, 0, 2001, 1, L, 0.8659999999999854, 0.01, 0.01333521432163324, , 3.39794914005, 17.326999999999998, 18.192000000000007, , 16.026315789473685, 29, 1, SS, 5, 90, 0, 1, 1, 1.14244799152, 45, How to open a browser?,  Click a mouse., 4, 13.924000000000035, 16.17500000000001, 0, 0, 0, 0, 2001, 1, 1, 0.01, fmri_v320180222085601, 400, Wed Mar 21 2018 09:14:27 GMT-0700 (PDT), stroop, 60
, , 2, 0.6150000000000091, , , , , , , 0, -1, -1, 0, 2001, 2, L, 0.8170000000000073, 0.01333521432163324, 0.01, , 1.65653309479, 25.028999999999996, 25.846000000000004, , 19.39261814019195, 40, 1, LL, 5, 90, 0, 1, 1, 1.79982058152, 51, How to watch television?,  Use a remote., 4, 20.860000000000014, 23.22800000000001, 0, 1, 1, 1, 2001, 1, 1, 0.01, fmri_v320180222085601, 400, Wed Mar 21 2018 09:14:27 GMT-0700 (PDT), stroop, 60, , , , , , , 0, -1, -1, 0, 2001, 2, L, 0.8170000000000073, 0.01333521432163324, 0.01, , 1.65653309479, 25.028999999999996, 25.846000000000004, , 19.39261814019195, 40, 1, LL, 5, 90, 0, 1, 1, 1.79982058152, 51, How to watch television?,  Use a remote., 4, 20.860000000000014, 23.22800000000001, 0, 1, 1, 1, 2001, 1, 1, 0.01, fmri_v320180222085601, 400, Wed Mar 21 2018 09:14:27 GMT-0700 (PDT), stroop, 60
, , 1, 0.4989999999999668, , , , , , , 0, -1, -1, 0, 2001, 3, L, 0.8999999999999773, 0.01, 0.007498942093324559, , 2.15051055241, 32.60000000000002, 33.5, , 12.157894736842106, 22, 1, LL, 5, 90, 0, 1, 1, 1.34642882916, 37, How to achieve success?,  Get a promotion., 6, 28.99799999999999, 31.24799999999999, 0, 2, 2, 2, 2001, 1, 1, 0.01, fmri_v320180222085601, 400, Wed Mar 21 2018 09:14:27 GMT-0700 (PDT), stroop, 60, , , , , , , 0, -1, -1, 0, 2001, 3, L, 0.8999999999999773, 0.01, 0.007498942093324559, , 2.15051055241, 32.60000000000002, 33.5, , 12.157894736842106, 22, 1, LL, 5, 90, 0, 1, 1, 1.34642882916, 37, How to achieve success?,  Get a promotion., 6, 28.99799999999999, 31.24799999999999, 0, 2, 2, 2, 2001, 1, 1, 0.01, fmri_v320180222085601, 400, Wed Mar 21 2018 09:14:27 GMT-0700 (PDT), stroop, 60
, , , , , , , , , , 0, -1, -1, 0, 2001, 4, L, 6.001999999999953, 0.007498942093324559, 0.007498942093324559, , 1.74381426698, 42.388000000000034, 48.39100000000002, , 14.247005863263896, 23, 1, , 5, 90, 0, 1, 1, 1.98861781724, 22, How to show humility?,  Build muscles., 6, 36.252999999999986, 40.398000000000025, 0, 3, 3, 3, 2001, 1, 1, 0.01, fmri_v320180222085601, 400, Wed Mar 21 2018 09:14:27 GMT-0700 (PDT), stroop, 60, , , , , , , 0, -1, -1, 0, 2001, 4, L, 6.001999999999953, 0.007498942093324559, 0.007498942093324559, , 1.74381426698, 42.388000000000034, 48.39100000000002, , 14.247005863263896, 23, 1, , 5, 90, 0, 1, 1, 1.98861781724, 22, How to show humility?,  Build muscles., 6, 36.252999999999986, 40.398000000000025, 0, 3, 3, 3, 2001, 1, 1, 0.01, fmri_v320180222085601, 400, Wed Mar 21 2018 09:14:27 GMT-0700 (PDT), stroop, 60
, , 1, 0.2489999999999668, , , , , , , 0, -1, -1, 0, 2001, 5, R, 0.5499999999999545, 0.007498942093324559, 0.01, , 1.68388032448, 53.22700000000003, 53.77699999999999, , 24.1579664637953, 39, 1, SS, 5, 90, 0, 1, 1, 1.12094186668, 54, How to show appreciation?,  Give applause., 5, 50.091999999999985, 52.091999999999985, 0, 4, 4, 4, 2001, 1, 1, 0.01, fmri_v320180222085601, 400, Wed Mar 21 2018 09:14:27 GMT-0700 (PDT), stroop, 60, , , , , , , 0, -1, -1, 0, 2001, 5, R, 0.5499999999999545, 0.007498942093324559, 0.01, , 1.68388032448, 53.22700000000003, 53.77699999999999, , 24.1579664637953, 39, 1, SS, 5, 90, 0, 1, 1, 1.12094186668, 54, How to show appreciation?,  Give applause., 5, 50.091999999999985, 52.091999999999985, 0, 4, 4, 4, 2001, 1, 1, 0.01, fmri_v320180222085601, 400, Wed Mar 21 2018 09:14:27 GMT-0700 (PDT), stroop, 60
, , 1, 0.2999999999999545, , , , , , , 0, -1, -1, 0, 2001, 6, R, 0.44899999999995543, 0.01, 0.01333521432163324, , 1.13845972029, 59.547000000000025, 59.997000000000014, , 11.05263157894737, 20, 1, SS, 5, 90, 0, 1, 1, 1.55695628455, 30, How to make a donation?,  Mix a cocktail., 5, 55.928, 57.978999999999985, 0, 5, 5, 5, 2001, 1, 1, 0.01, fmri_v320180222085601, 400, Wed Mar 21 2018 09:14:27 GMT-0700 (PDT), stroop, 60, , , , , , , 0, -1, -1, 0, 2001, 6, R, 0.44899999999995543, 0.01, 0.01333521432163324, , 1.13845972029, 59.547000000000025, 59.997000000000014, , 11.05263157894737, 20, 1, SS, 5, 90, 0, 1, 1, 1.55695628455, 30, How to make a donation?,  Mix a cocktail., 5, 55.928, 57.978999999999985, 0, 5, 5, 5, 2001, 1, 1, 0.01, fmri_v320180222085601, 400, Wed Mar 21 2018 09:14:27 GMT-0700 (PDT), stroop, 60
, , 1, 0.5339999999999918, , , , , , , 0, -1, -1, 0, 2001, 7, L, 0.35000000000002274, 0.01333521432163324, 0.01778279410038923, , 1.98122503496, 66.81700000000001, 67.16700000000003, , 12.120386337619967, 25, 1, SS, 5, 90, 0, 1, 1, 1.54382547046, 36, Why make breakfast?,  Satisfy hunger., 2, 62.98200000000003, 65.26800000000003, 0, 6, 6, 6, 2001, 1, 1, 0.01, fmri_v320180222085601, 400, Wed Mar 21 2018 09:14:27 GMT-0700 (PDT), stroop, 60, , , , , , , 0, -1, -1, 0, 2001, 7, L, 0.35000000000002274, 0.01333521432163324, 0.01778279410038923, , 1.98122503496, 66.81700000000001, 67.16700000000003, , 12.120386337619967, 25, 1, SS, 5, 90, 0, 1, 1, 1.54382547046, 36, Why make breakfast?,  Satisfy hunger., 2, 62.98200000000003, 65.26800000000003, 0, 6, 6, 6, 2001, 1, 1, 0.01, fmri_v320180222085601, 400, Wed Mar 21 2018 09:14:27 GMT-0700 (PDT), stroop, 60
, , , , , , , , , , 0, -1, -1, 0, 2001, 8, R, 6.004000000000019, 0.01778279410038923, 0.01778279410038923, , 1.72585562144, 75.95499999999998, 81.959, , 14.655912414204993, 35, 1, , 5, 90, 0, 1, 1, 2.04620678791, 34, Why give applause?,  Show appreciation., 2, 69.90199999999999, 73.90800000000002, 0, 7, 7, 7, 2001, 1, 1, 0.01, fmri_v320180222085601, 400, Wed Mar 21 2018 09:14:27 GMT-0700 (PDT), stroop, 60, , , , , , , 0, -1, -1, 0, 2001, 8, R, 6.004000000000019, 0.01778279410038923, 0.01778279410038923, , 1.72585562144, 75.95499999999998, 81.959, , 14.655912414204993, 35, 1, , 5, 90, 0, 1, 1, 2.04620678791, 34, Why give applause?,  Show appreciation., 2, 69.90199999999999, 73.90800000000002, 0, 7, 7, 7, 2001, 1, 1, 0.01, fmri_v320180222085601, 400, Wed Mar 21 2018 09:14:27 GMT-0700 (PDT), stroop, 60
, , , , , , , , , , 0, -1, -1, 0, 2001, 9, L, 6.002999999999986, 0.01778279410038923, 0.01778279410038923, , 1.24089778804, 88.81200000000001, 94.815, , 15.493393123588133, 37, 1, , 5, 90, 0, 1, 1, 1.59072359882, 16, Why make art?,  Show creativity., 3, 83.21000000000004, 87.21100000000001, 0, 8, 8, 8, 2001, 1, 1, 0.01, fmri_v320180222085601, 400, Wed Mar 21 2018 09:14:27 GMT-0700 (PDT), stroop, 60, , , , , , , 0, -1, -1, 0, 2001, 9, L, 6.002999999999986, 0.01778279410038923, 0.01778279410038923, , 1.24089778804, 88.81200000000001, 94.815, , 15.493393123588133, 37, 1, , 5, 90, 0, 1, 1, 1.59072359882, 16, Why make art?,  Show creativity., 3, 83.21000000000004, 87.21100000000001, 0, 8, 8, 8, 2001, 1, 1, 0.01, fmri_v320180222085601, 400, Wed Mar 21 2018 09:14:27 GMT-0700 (PDT), stroop, 60
, , , , , , , , , , 0, -1, -1, 0, 2001, 10, R, 6.003000000000043, 0.01778279410038923, 0.01778279410038923, , 1.56629848172, 101.68299999999999, 107.68600000000004, , 15.912133478279705, 38, 1, , 5, 90, 0, 1, 1, 1.29801671532, 19, Why hold a party?,  Feel sociable., 3, 96.382, 100.38299999999998, 0, 9, 9, 9, 2001, 1, 1, 0.01, fmri_v320180222085601, 400, Wed Mar 21 2018 09:14:27 GMT-0700 (PDT), stroop, 60, , , , , , , 0, -1, -1, 0, 2001, 10, R, 6.003000000000043, 0.01778279410038923, 0.01778279410038923, , 1.56629848172, 101.68299999999999, 107.68600000000004, , 15.912133478279705, 38, 1, , 5, 90, 0, 1, 1, 1.29801671532, 19, Why hold a party?,  Feel sociable., 3, 96.382, 100.38299999999998, 0, 9, 9, 9, 2001, 1, 1, 0.01, fmri_v320180222085601, 400, Wed Mar 21 2018 09:14:27 GMT-0700 (PDT), stroop, 60
, , , , , , , , , , 0, -1, -1, 0, 2001, 11, R, 6.004000000000019, 0.01778279410038923, 0.01778279410038923, , 3.14616656681, 116.113, 122.11700000000002, , 12.980950995438706, 31, 1, , 5, 90, 0, 1, 1, 1.25752472225, 41, Why cut paper?,  Clip coupons., 1, 110.844, 114.846, 0, 10, 10, 10, 2001, 1, 1, 0.01, fmri_v320180222085601, 400, Wed Mar 21 2018 09:14:27 GMT-0700 (PDT), stroop, 60, , , , , , , 0, -1, -1, 0, 2001, 11, R, 6.004000000000019, 0.01778279410038923, 0.01778279410038923, , 3.14616656681, 116.113, 122.11700000000002, , 12.980950995438706, 31, 1, , 5, 90, 0, 1, 1, 1.25752472225, 41, Why cut paper?,  Clip coupons., 1, 110.844, 114.846, 0, 10, 10, 10, 2001, 1, 1, 0.01, fmri_v320180222085601, 400, Wed Mar 21 2018 09:14:27 GMT-0700 (PDT), stroop, 60
, , , , , , , , , , 0, -1, -1, 0, 2001, 12, R, 6.003999999999962, 0.01778279410038923, 0.01778279410038923, , 2.57414136872, 130.887, 136.89, , 12.562210640747136, 30, 1, , 5, 90, 0, 1, 1, 2.17864874502, 50, Why use a remote?,  Watch television., 1, 124.69200000000001, 128.702, 0, 11, 11, 11, 2001, 1, 1, 0.01, fmri_v320180222085601, 400, Wed Mar 21 2018 09:14:27 GMT-0700 (PDT), stroop, 60, , , , , , , 0, -1, -1, 0, 2001, 12, R, 6.003999999999962, 0.01778279410038923, 0.01778279410038923, , 2.57414136872, 130.887, 136.89, , 12.562210640747136, 30, 1, , 5, 90, 0, 1, 1, 2.17864874502, 50, Why use a remote?,  Watch television., 1, 124.69200000000001, 128.702, 0, 11, 11, 11, 2001, 1, 1, 0.01, fmri_v320180222085601, 400, Wed Mar 21 2018 09:14:27 GMT-0700 (PDT), stroop, 60
, , , , , , , , , , 0, -1, -1, 0, 2001, 13, R, 6.0020000000000095, 0.01778279410038923, 0.01778279410038923, , 1.17672706347, 143.423, 149.42400000000004, , 10.049768512597709, 24, 1, , 5, 90, 0, 1, 1, 1.33671465959, 42, Why enter a classroom?,  Attend a school., 2, 138.06900000000002, 142.072, 0, 12, 12, 12, 2001, 1, 1, 0.01, fmri_v320180222085601, 400, Wed Mar 21 2018 09:14:27 GMT-0700 (PDT), stroop, 60, , , , , , , 0, -1, -1, 0, 2001, 13, R, 6.0020000000000095, 0.01778279410038923, 0.01778279410038923, , 1.17672706347, 143.423, 149.42400000000004, , 10.049768512597709, 24, 1, , 5, 90, 0, 1, 1, 1.33671465959, 42, Why enter a classroom?,  Attend a school., 2, 138.06900000000002, 142.072, 0, 12, 12, 12, 2001, 1, 1, 0.01, fmri_v320180222085601, 400, Wed Mar 21 2018 09:14:27 GMT-0700 (PDT), stroop, 60
, , , , , , , , , , 0, -1, -1, 0, 2001, 14, R, 6.002999999999929, 0.01778279410038923, 0.01778279410038923, , 1.18774239281, 157.62800000000004, 163.63200000000006, , 14.237172059513421, 34, 1, , 5, 90, 0, 1, 1, 2.99940375052, 47, Why write a poem?,  Express an idea., 2, 150.625, 154.62699999999995, 0, 13, 13, 13, 2001, 1, 1, 0.01, fmri_v320180222085601, 400, Wed Mar 21 2018 09:14:27 GMT-0700 (PDT), stroop, 60, , , , , , , 0, -1, -1, 0, 2001, 14, R, 6.002999999999929, 0.01778279410038923, 0.01778279410038923, , 1.18774239281, 157.62800000000004, 163.63200000000006, , 14.237172059513421, 34, 1, , 5, 90, 0, 1, 1, 2.99940375052, 47, Why write a poem?,  Express an idea., 2, 150.625, 154.62699999999995, 0, 13, 13, 13, 2001, 1, 1, 0.01, fmri_v320180222085601, 400, Wed Mar 21 2018 09:14:27 GMT-0700 (PDT), stroop, 60
, , , , , , , , , , 0, -1, -1, 0, 2001, 15, R, 6.005999999999972, 0.01778279410038923, 0.01778279410038923, , 6.17468348931, 176.16499999999996, 182.16999999999996, , 10.88724922198085, 26, 1, , 5, 90, 0, 1, 1, 2.35023721395, 25, How to go shopping?,  Use credit cards., 4, 169.81000000000006, 173.812, 0, 14, 14, 14, 2001, 1, 1, 0.01, fmri_v320180222085601, 400, Wed Mar 21 2018 09:14:27 GMT-0700 (PDT), stroop, 60, , , , , , , 0, -1, -1, 0, 2001, 15, R, 6.005999999999972, 0.01778279410038923, 0.01778279410038923, , 6.17468348931, 176.16499999999996, 182.16999999999996, , 10.88724922198085, 26, 1, , 5, 90, 0, 1, 1, 2.35023721395, 25, How to go shopping?,  Use credit cards., 4, 169.81000000000006, 173.812, 0, 14, 14, 14, 2001, 1, 1, 0.01, fmri_v320180222085601, 400, Wed Mar 21 2018 09:14:27 GMT-0700 (PDT), stroop, 60
, , , , , , , , , , 0, -1, -1, 0, 2001, 16, R, 6.004000000000019, 0.01778279410038923, 0.01778279410038923, , 2.70918845417, 190.716, 196.72000000000003, , 11.724729931363994, 28, 1, , 5, 90, 0, 1, 1, 1.80510084824, 23, How to read articles?,  Open a magazine., 4, 184.889, 188.899, 0, 15, 15, 15, 2001, 1, 1, 0.01, fmri_v320180222085601, 400, Wed Mar 21 2018 09:14:27 GMT-0700 (PDT), stroop, 60, , , , , , , 0, -1, -1, 0, 2001, 16, R, 6.004000000000019, 0.01778279410038923, 0.01778279410038923, , 2.70918845417, 190.716, 196.72000000000003, , 11.724729931363994, 28, 1, , 5, 90, 0, 1, 1, 1.80510084824, 23, How to read articles?,  Open a magazine., 4, 184.889, 188.899, 0, 15, 15, 15, 2001, 1, 1, 0.01, fmri_v320180222085601, 400, Wed Mar 21 2018 09:14:27 GMT-0700 (PDT), stroop, 60
, , , , , , , , , , 0, -1, -1, 0, 2001, 17, L, 6.04099999999994, 0.01778279410038923, 0.01778279410038923, , 3.05827485225, 205.02300000000002, 211.06399999999996, , 11.305989576672422, 27, 1, , 5, 90, 0, 1, 1, 1.22446126837, 29, Why wear ties?,  Dress formally., 1, 199.78600000000006, 203.789, 0, 16, 16, 16, 2001, 1, 1, 0.01, fmri_v320180222085601, 400, Wed Mar 21 2018 09:14:27 GMT-0700 (PDT), stroop, 60, , , , , , , 0, -1, -1, 0, 2001, 17, L, 6.04099999999994, 0.01778279410038923, 0.01778279410038923, , 3.05827485225, 205.02300000000002, 211.06399999999996, , 11.305989576672422, 27, 1, , 5, 90, 0, 1, 1, 1.22446126837, 29, Why wear ties?,  Dress formally., 1, 199.78600000000006, 203.789, 0, 16, 16, 16, 2001, 1, 1, 0.01, fmri_v320180222085601, 400, Wed Mar 21 2018 09:14:27 GMT-0700 (PDT), stroop, 60
, , , , , , , , , , 0, -1, -1, 0, 2001, 18, R, 6.074999999999932, 0.01778279410038923, 0.01778279410038923, , 1.08380517698, 217.97400000000005, 224.04899999999998, , 8.793547448522995, 21, 1, , 5, 90, 0, 1, 1, 1.71093907438, 58, Why turn a doorknob?,  Enter a classroom., 1, 212.17700000000002, 216.21699999999998, 0, 17, 17, 17, 2001, 1, 1, 0.01, fmri_v320180222085601, 400, Wed Mar 21 2018 09:14:27 GMT-0700 (PDT), stroop, 60, , , , , , , 0, -1, -1, 0, 2001, 18, R, 6.074999999999932, 0.01778279410038923, 0.01778279410038923, , 1.08380517698, 217.97400000000005, 224.04899999999998, , 8.793547448522995, 21, 1, , 5, 90, 0, 1, 1, 1.71093907438, 58, Why turn a doorknob?,  Enter a classroom., 1, 212.17700000000002, 216.21699999999998, 0, 17, 17, 17, 2001, 1, 1, 0.01, fmri_v320180222085601, 400, Wed Mar 21 2018 09:14:27 GMT-0700 (PDT), stroop, 60
, , , , , , , , , , 0, -1, -1, 0, 2001, 19, L, 6.015999999999963, 0.01778279410038923, 0.01778279410038923, , 2.48472906614, 234.59500000000003, 240.611, , 13.399691350130277, 32, 1, , 5, 90, 0, 1, 1, 3.92934570762, 44, Why avoid diseases?,  Live a long life., 3, 226.54899999999998, 230.663, 0, 18, 18, 18, 2001, 1, 1, 0.01, fmri_v320180222085601, 400, Wed Mar 21 2018 09:14:27 GMT-0700 (PDT), stroop, 60, , , , , , , 0, -1, -1, 0, 2001, 19, L, 6.015999999999963, 0.01778279410038923, 0.01778279410038923, , 2.48472906614, 234.59500000000003, 240.611, , 13.399691350130277, 32, 1, , 5, 90, 0, 1, 1, 3.92934570762, 44, Why avoid diseases?,  Live a long life., 3, 226.54899999999998, 230.663, 0, 18, 18, 18, 2001, 1, 1, 0.01, fmri_v320180222085601, 400, Wed Mar 21 2018 09:14:27 GMT-0700 (PDT), stroop, 60
, , , , , , , , , , 0, -1, -1, 0, 2001, 20, L, 6.04099999999994, 0.01778279410038923, 0.01778279410038923, , 2.02851075283, 248.18100000000004, 254.22199999999998, , 15.074652768896561, 36, 1, , 5, 90, 0, 1, 1, 1.47533718187, 49, Why keep a memory?,  Feel nostalgia., 3, 242.66700000000003, 246.69299999999998, 0, 19, 19, 19, 2001, 1, 1, 0.01, fmri_v320180222085601, 400, Wed Mar 21 2018 09:14:27 GMT-0700 (PDT), stroop, 60, , , , , , , 0, -1, -1, 0, 2001, 20, L, 6.04099999999994, 0.01778279410038923, 0.01778279410038923, , 2.02851075283, 248.18100000000004, 254.22199999999998, , 15.074652768896561, 36, 1, , 5, 90, 0, 1, 1, 1.47533718187, 49, Why keep a memory?,  Feel nostalgia., 3, 242.66700000000003, 246.69299999999998, 0, 19, 19, 19, 2001, 1, 1, 0.01, fmri_v320180222085601, 400, Wed Mar 21 2018 09:14:27 GMT-0700 (PDT), stroop, 60
, , , , , , , , , , 0, -1, -1, 0, 2001, 21, L, 6.196000000000026, 0.01778279410038923, 0.01778279410038923, , 1.11274387959, 265.428, 271.624, , 15.074652768896561, 36, 1, , 5, 90, 0, 1, 1, 5.88836535773, 39, How to entertain others?,  Write a song., 5, 255.35900000000004, 259.4, 0, 20, 20, 20, 2001, 1, 1, 0.01, fmri_v320180222085601, 400, Wed Mar 21 2018 09:14:27 GMT-0700 (PDT), stroop, 60, , , , , , , 0, -1, -1, 0, 2001, 21, L, 6.196000000000026, 0.01778279410038923, 0.01778279410038923, , 1.11274387959, 265.428, 271.624, , 15.074652768896561, 36, 1, , 5, 90, 0, 1, 1, 5.88836535773, 39, How to entertain others?,  Write a song., 5, 255.35900000000004, 259.4, 0, 20, 20, 20, 2001, 1, 1, 0.01, fmri_v320180222085601, 400, Wed Mar 21 2018 09:14:27 GMT-0700 (PDT), stroop, 60
, , , , , , , , , , 0, -1, -1, 0, 2001, 22, L, 6.0049999999999955, 0.01778279410038923, 0.01778279410038923, , 1.41579165134, 278.928, 284.933, , 12.980950995438706, 31, 1, , 5, 90, 0, 1, 1, 1.76026009555, 31, How to get a promotion?,  Arrive on time., 5, 273.053, 277.116, 0, 21, 21, 21, 2001, 1, 1, 0.01, fmri_v320180222085601, 400, Wed Mar 21 2018 09:14:27 GMT-0700 (PDT), stroop, 60, , , , , , , 0, -1, -1, 0, 2001, 22, L, 6.0049999999999955, 0.01778279410038923, 0.01778279410038923, , 1.41579165134, 278.928, 284.933, , 12.980950995438706, 31, 1, , 5, 90, 0, 1, 1, 1.76026009555, 31, How to get a promotion?,  Arrive on time., 5, 273.053, 277.116, 0, 21, 21, 21, 2001, 1, 1, 0.01, fmri_v320180222085601, 400, Wed Mar 21 2018 09:14:27 GMT-0700 (PDT), stroop, 60
, , , , , , , , , , 0, -1, -1, 0, 2001, 23, L, 6.1440000000000055, 0.01778279410038923, 0.01778279410038923, , 1.02615891579, 292.948, 299.09299999999996, , 10.88724922198085, 26, 1, , 5, 90, 0, 1, 1, 2.74690406397, 27, How to spread joy?,  Get a job., 6, 285.995, 290.033, 0, 22, 22, 22, 2001, 1, 1, 0.01, fmri_v320180222085601, 400, Wed Mar 21 2018 09:14:27 GMT-0700 (PDT), stroop, 60, , , , , , , 0, -1, -1, 0, 2001, 23, L, 6.1440000000000055, 0.01778279410038923, 0.01778279410038923, , 1.02615891579, 292.948, 299.09299999999996, , 10.88724922198085, 26, 1, , 5, 90, 0, 1, 1, 2.74690406397, 27, How to spread joy?,  Get a job., 6, 285.995, 290.033, 0, 22, 22, 22, 2001, 1, 1, 0.01, fmri_v320180222085601, 400, Wed Mar 21 2018 09:14:27 GMT-0700 (PDT), stroop, 60
, , , , , , , , , , 0, -1, -1, 0, 2001, 24, R, 6.022999999999911, 0.01778279410038923, 0.01778279410038923, , 1.48686772341, 307.03100000000006, 313.054, , 14.237172059513421, 34, 1, , 5, 90, 0, 1, 1, 2.34358359344, 13, How to impress others?,  Show intelligence., 6, 300.62800000000004, 304.682, 0, 23, 23, 23, 2001, 1, 1, 0.01, fmri_v320180222085601, 400, Wed Mar 21 2018 09:14:27 GMT-0700 (PDT), stroop, 60, , , , , , , 0, -1, -1, 0, 2001, 24, R, 6.022999999999911, 0.01778279410038923, 0.01778279410038923, , 1.48686772341, 307.03100000000006, 313.054, , 14.237172059513421, 34, 1, , 5, 90, 0, 1, 1, 2.34358359344, 13, How to impress others?,  Show intelligence., 6, 300.62800000000004, 304.682, 0, 23, 23, 23, 2001, 1, 1, 0.01, fmri_v320180222085601, 400, Wed Mar 21 2018 09:14:27 GMT-0700 (PDT), stroop, 60
, , , , , , , , , , 0, -1, -1, 0, 2001, 25, R, 6.079000000000065, 0.01778279410038923, 0.01778279410038923, , 1.01054251306, 319.534, 325.61300000000006, , 10.468508867289279, 25, 1, , 5, 90, 0, 1, 1, 1.35938889846, 32, How to kill germs?,  Wash ones hands., 4, 314.068, 318.07399999999996, 0, 24, 24, 24, 2001, 1, 1, 0.01, fmri_v320180222085601, 400, Wed Mar 21 2018 09:14:27 GMT-0700 (PDT), stroop, 60, , , , , , , 0, -1, -1, 0, 2001, 25, R, 6.079000000000065, 0.01778279410038923, 0.01778279410038923, , 1.01054251306, 319.534, 325.61300000000006, , 10.468508867289279, 25, 1, , 5, 90, 0, 1, 1, 1.35938889846, 32, How to kill germs?,  Wash ones hands., 4, 314.068, 318.07399999999996, 0, 24, 24, 24, 2001, 1, 1, 0.01, fmri_v320180222085601, 400, Wed Mar 21 2018 09:14:27 GMT-0700 (PDT), stroop, 60
, , , , , , , , , , 0, -1, -1, 0, 2001, 26, R, 6.01299999999992, 0.01778279410038923, 0.01778279410038923, , 2.60655099097, 334.93500000000006, 340.948, , 11.305989576672422, 27, 1, , 5, 90, 0, 1, 1, 2.52317262813, 20, How to make a phone call?,  Dial numbers., 4, 328.395, 332.40700000000004, 0, 25, 25, 25, 2001, 1, 1, 0.01, fmri_v320180222085601, 400, Wed Mar 21 2018 09:14:27 GMT-0700 (PDT), stroop, 60, , , , , , , 0, -1, -1, 0, 2001, 26, R, 6.01299999999992, 0.01778279410038923, 0.01778279410038923, , 2.60655099097, 334.93500000000006, 340.948, , 11.305989576672422, 27, 1, , 5, 90, 0, 1, 1, 2.52317262813, 20, How to make a phone call?,  Dial numbers., 4, 328.395, 332.40700000000004, 0, 25, 25, 25, 2001, 1, 1, 0.01, fmri_v320180222085601, 400, Wed Mar 21 2018 09:14:27 GMT-0700 (PDT), stroop, 60
, , , , , , , , , , 0, -1, -1, 0, 2001, 27, L, 1.0310000000001764, 0.01778279410038923, 0.013335214321633242, , 1.32844644037, 1473.86, 1474.891, , 16.330873832971275, 39, 1, LL, 5, 90, 0, 1, 1, 1.25540914763, 28, Why entertain others?,  Express a talent., 3, 342.278, 1472.587, 0, 26, 26, 26, 2001, 1, 1, 0.01, fmri_v320180222085601, 400, Wed Mar 21 2018 09:14:27 GMT-0700 (PDT), stroop, 60, , , , , , , 0, -1, -1, 0, 2001, 27, L, 1.0310000000001764, 0.01778279410038923, 0.013335214321633242, , 1.32844644037, 1473.86, 1474.891, , 16.330873832971275, 39, 1, LL, 5, 90, 0, 1, 1, 1.25540914763, 28, Why entertain others?,  Express a talent., 3, 342.278, 1472.587, 0, 26, 26, 26, 2001, 1, 1, 0.01, fmri_v320180222085601, 400, Wed Mar 21 2018 09:14:27 GMT-0700 (PDT), stroop, 60
, , , , , , , , , , 0, -1, -1, 0, 2001, 28, L, 0, 0.013335214321633242, 0.013335214321633242, , 1.16822910376, 1475.893, 1475.893, , 9.696309070095975, 20, 1, , 5, 90, 0, 1, 1, 1.67114711864, 52, Why show appreciation?,  Spread joy., 3, 1475.892, 1475.892, 0, 27, 27, 27, 2001, 1, 1, 0.01, fmri_v320180222085601, 400, Wed Mar 21 2018 09:14:27 GMT-0700 (PDT), stroop, 60, , , , , , , 0, -1, -1, 0, 2001, 28, L, 0, 0.013335214321633242, 0.013335214321633242, , 1.16822910376, 1475.893, 1475.893, , 9.696309070095975, 20, 1, , 5, 90, 0, 1, 1, 1.67114711864, 52, Why show appreciation?,  Spread joy., 3, 1475.892, 1475.892, 0, 27, 27, 27, 2001, 1, 1, 0.01, fmri_v320180222085601, 400, Wed Mar 21 2018 09:14:27 GMT-0700 (PDT), stroop, 60
, , , , , , , , , , 0, -1, -1, 0, 2001, 29, L, 0, 0.013335214321633242, 0.013335214321633242, , 1.51677936898, 1475.895, 1475.897, , 11.63557088411517, 24, 1, , 5, 90, 0, 1, 1, 1.55673105215, 21, How to give to charity?,  Use a camera., 5, 1475.894, 1475.894, 0, 28, 28, 28, 2001, 1, 1, 0.01, fmri_v320180222085601, 400, Wed Mar 21 2018 09:14:27 GMT-0700 (PDT), stroop, 60, , , , , , , 0, -1, -1, 0, 2001, 29, L, 0, 0.013335214321633242, 0.013335214321633242, , 1.51677936898, 1475.895, 1475.897, , 11.63557088411517, 24, 1, , 5, 90, 0, 1, 1, 1.55673105215, 21, How to give to charity?,  Use a camera., 5, 1475.894, 1475.894, 0, 28, 28, 28, 2001, 1, 1, 0.01, fmri_v320180222085601, 400, Wed Mar 21 2018 09:14:27 GMT-0700 (PDT), stroop, 60
, , , , , , , , , , 0, -1, -1, 0, 2001, 30, R, 0, 0.013335214321633242, 0.013335214321633242, , 3.80861092567, 1475.898, 1475.8990000000001, , 16.968540872667955, 35, 1, , 5, 90, 0, 1, 1, 2.38641227579, 12, How to gain knowledge?,  Read articles., 5, 1475.897, 1475.897, 0, 29, 29, 29, 2001, 1, 1, 0.01, fmri_v320180222085601, 400, Wed Mar 21 2018 09:14:27 GMT-0700 (PDT), stroop, 60, , , , , , , 0, -1, -1, 0, 2001, 30, R, 0, 0.013335214321633242, 0.013335214321633242, , 3.80861092567, 1475.898, 1475.8990000000001, , 16.968540872667955, 35, 1, , 5, 90, 0, 1, 1, 2.38641227579, 12, How to gain knowledge?,  Read articles., 5, 1475.897, 1475.897, 0, 29, 29, 29, 2001, 1, 1, 0.01, fmri_v320180222085601, 400, Wed Mar 21 2018 09:14:27 GMT-0700 (PDT), stroop, 60
, , , , , , , , , , 0, -1, -1, 0, 2001, 31, R, 0, 0.013335214321633242, 0.013335214321633242, , 2.06331258897, 1475.9, 1475.901, , 14.059648151639164, 29, 1, , 5, 90, 0, 1, 1, 1.65925817686, 46, Why teach a class?,  Obey laws., 2, 1475.8990000000001, 1475.8990000000001, 0, 30, 30, 30, 2001, 1, 1, 0.01, fmri_v320180222085601, 400, Wed Mar 21 2018 09:14:27 GMT-0700 (PDT), stroop, 60, , , , , , , 0, -1, -1, 0, 2001, 31, R, 0, 0.013335214321633242, 0.013335214321633242, , 2.06331258897, 1475.9, 1475.901, , 14.059648151639164, 29, 1, , 5, 90, 0, 1, 1, 1.65925817686, 46, Why teach a class?,  Obey laws., 2, 1475.8990000000001, 1475.8990000000001, 0, 30, 30, 30, 2001, 1, 1, 0.01, fmri_v320180222085601, 400, Wed Mar 21 2018 09:14:27 GMT-0700 (PDT), stroop, 60
, , , , , , , , , , 0, -1, -1, 0, 2001, 32, R, 0, 0.013335214321633242, 0.013335214321633242, , 1.16790065547, 1475.901, 1475.902, , 11.15075543061037, 23, 1, , 5, 90, 0, 1, 1, 2.38814155572, 2, Why dress formally?,  Get a promotion., 2, 1475.901, 1475.901, 0, 31, 31, 31, 2001, 1, 1, 0.01, fmri_v320180222085601, 400, Wed Mar 21 2018 09:14:27 GMT-0700 (PDT), stroop, 60, , , , , , , 0, -1, -1, 0, 2001, 32, R, 0, 0.013335214321633242, 0.013335214321633242, , 1.16790065547, 1475.901, 1475.902, , 11.15075543061037, 23, 1, , 5, 90, 0, 1, 1, 2.38814155572, 2, Why dress formally?,  Get a promotion., 2, 1475.901, 1475.901, 0, 31, 31, 31, 2001, 1, 1, 0.01, fmri_v320180222085601, 400, Wed Mar 21 2018 09:14:27 GMT-0700 (PDT), stroop, 60
, , , , , , , , , , 0, -1, -1, 0, 2001, 33, L, 0, 0.013335214321633242, 0.013335214321633242, , 1.83300765594, 1475.903, 1475.904, , 15.51409451215356, 32, 1, , 5, 90, 0, 1, 1, 1.48080474737, 18, Why sign ones name?,  Write a check., 1, 1475.903, 1475.903, 0, 32, 32, 32, 2001, 1, 1, 0.01, fmri_v320180222085601, 400, Wed Mar 21 2018 09:14:27 GMT-0700 (PDT), stroop, 60, , , , , , , 0, -1, -1, 0, 2001, 33, L, 0, 0.013335214321633242, 0.013335214321633242, , 1.83300765594, 1475.903, 1475.904, , 15.51409451215356, 32, 1, , 5, 90, 0, 1, 1, 1.48080474737, 18, Why sign ones name?,  Write a check., 1, 1475.903, 1475.903, 0, 32, 32, 32, 2001, 1, 1, 0.01, fmri_v320180222085601, 400, Wed Mar 21 2018 09:14:27 GMT-0700 (PDT), stroop, 60
, , , , , , , , , , 0, -1, -1, 0, 2001, 34, L, 0, 0.013335214321633242, 0.013335214321633242, , 1.12827021202, 1475.904, 1475.905, , 14.544463605143962, 30, 1, , 5, 90, 0, 1, 1, 1.51706596356, 56, Why use chalk?,  Get fit., 1, 1475.904, 1475.904, 0, 33, 33, 33, 2001, 1, 1, 0.01, fmri_v320180222085601, 400, Wed Mar 21 2018 09:14:27 GMT-0700 (PDT), stroop, 60, , , , , , , 0, -1, -1, 0, 2001, 34, L, 0, 0.013335214321633242, 0.013335214321633242, , 1.12827021202, 1475.904, 1475.905, , 14.544463605143962, 30, 1, , 5, 90, 0, 1, 1, 1.51706596356, 56, Why use chalk?,  Get fit., 1, 1475.904, 1475.904, 0, 33, 33, 33, 2001, 1, 1, 0.01, fmri_v320180222085601, 400, Wed Mar 21 2018 09:14:27 GMT-0700 (PDT), stroop, 60
, , , , , , , , , , 0, -1, -1, 0, 2001, 35, R, 0, 0.013335214321633242, 0.013335214321633242, , 2.87536072702, 1475.905, 1475.906, , 15.998909965658358, 33, 1, , 5, 90, 0, 1, 1, 3.74379403094, 3, How to avoid boredom?,  Entertain oneself., 6, 1475.905, 1475.905, 0, 34, 34, 34, 2001, 1, 1, 0.01, fmri_v320180222085601, 400, Wed Mar 21 2018 09:14:27 GMT-0700 (PDT), stroop, 60, , , , , , , 0, -1, -1, 0, 2001, 35, R, 0, 0.013335214321633242, 0.013335214321633242, , 2.87536072702, 1475.905, 1475.906, , 15.998909965658358, 33, 1, , 5, 90, 0, 1, 1, 3.74379403094, 3, How to avoid boredom?,  Entertain oneself., 6, 1475.905, 1475.905, 0, 34, 34, 34, 2001, 1, 1, 0.01, fmri_v320180222085601, 400, Wed Mar 21 2018 09:14:27 GMT-0700 (PDT), stroop, 60
, , , , , , , , , , 0, -1, -1, 0, 2001, 36, L, 0, 0.013335214321633242, 0.013335214321633242, , 2.14373342403, 1475.907, 1475.909, , 18.422987233182354, 38, 1, , 5, 90, 0, 1, 1, 1.55341790686, 40, How to show creativity?,  Make art., 6, 1475.906, 1475.907, 0, 35, 35, 35, 2001, 1, 1, 0.01, fmri_v320180222085601, 400, Wed Mar 21 2018 09:14:27 GMT-0700 (PDT), stroop, 60, , , , , , , 0, -1, -1, 0, 2001, 36, L, 0, 0.013335214321633242, 0.013335214321633242, , 2.14373342403, 1475.907, 1475.909, , 18.422987233182354, 38, 1, , 5, 90, 0, 1, 1, 1.55341790686, 40, How to show creativity?,  Make art., 6, 1475.906, 1475.907, 0, 35, 35, 35, 2001, 1, 1, 0.01, fmri_v320180222085601, 400, Wed Mar 21 2018 09:14:27 GMT-0700 (PDT), stroop, 60
, , , , , , , , , , 0, -1, -1, 0, 2001, 37, L, 0, 0.013335214321633242, 0.013335214321633242, , 3.45288369012, 1475.911, 1475.912, , 10.665939977105571, 22, 1, , 5, 90, 0, 1, 1, 1.78167760577, 55, How to show intellect?,  Share ideas., 6, 1475.91, 1475.91, 0, 36, 36, 36, 2001, 1, 1, 0.01, fmri_v320180222085601, 400, Wed Mar 21 2018 09:14:27 GMT-0700 (PDT), stroop, 60, , , , , , , 0, -1, -1, 0, 2001, 37, L, 0, 0.013335214321633242, 0.013335214321633242, , 3.45288369012, 1475.911, 1475.912, , 10.665939977105571, 22, 1, , 5, 90, 0, 1, 1, 1.78167760577, 55, How to show intellect?,  Share ideas., 6, 1475.91, 1475.91, 0, 36, 36, 36, 2001, 1, 1, 0.01, fmri_v320180222085601, 400, Wed Mar 21 2018 09:14:27 GMT-0700 (PDT), stroop, 60
, , , , , , , , , , 0, -1, -1, 0, 2001, 38, L, 0, 0.013335214321633242, 0.013335214321633242, , 2.15039365077, 1475.915, 1475.916, , 19.39261814019195, 40, 1, , 5, 90, 0, 1, 1, 2.58576778647, 5, How to express a talent?,  Entertain others., 6, 1475.913, 1475.914, 0, 37, 37, 37, 2001, 1, 1, 0.01, fmri_v320180222085601, 400, Wed Mar 21 2018 09:14:27 GMT-0700 (PDT), stroop, 60, , , , , , , 0, -1, -1, 0, 2001, 38, L, 0, 0.013335214321633242, 0.013335214321633242, , 2.15039365077, 1475.915, 1475.916, , 19.39261814019195, 40, 1, , 5, 90, 0, 1, 1, 2.58576778647, 5, How to express a talent?,  Entertain others., 6, 1475.913, 1475.914, 0, 37, 37, 37, 2001, 1, 1, 0.01, fmri_v320180222085601, 400, Wed Mar 21 2018 09:14:27 GMT-0700 (PDT), stroop, 60
, , , , , , , , , , 0, -1, -1, 0, 2001, 39, R, 0, 0.013335214321633242, 0.013335214321633242, , 1.42141697058, 1475.917, 1475.9180000000001, , 17.938171779677553, 37, 1, , 5, 90, 0, 1, 1, 1.39108483909, 57, Why follow recipes?,  Prepare meals., 1, 1475.916, 1475.917, 0, 38, 38, 38, 2001, 1, 1, 0.01, fmri_v320180222085601, 400, Wed Mar 21 2018 09:14:27 GMT-0700 (PDT), stroop, 60, , , , , , , 0, -1, -1, 0, 2001, 39, R, 0, 0.013335214321633242, 0.013335214321633242, , 1.42141697058, 1475.917, 1475.9180000000001, , 17.938171779677553, 37, 1, , 5, 90, 0, 1, 1, 1.39108483909, 57, Why follow recipes?,  Prepare meals., 1, 1475.916, 1475.917, 0, 38, 38, 38, 2001, 1, 1, 0.01, fmri_v320180222085601, 400, Wed Mar 21 2018 09:14:27 GMT-0700 (PDT), stroop, 60
, , , , , , , , , , 0, -1, -1, 0, 2001, 40, R, 0, 0.013335214321633242, 0.013335214321633242, , 1.75600951524, 1475.919, 1475.919, , 13.574832698134365, 28, 1, , 5, 90, 0, 1, 1, 2.37999936122, 8, Why open a magazine?,  Read articles., 1, 1475.9180000000001, 1475.919, 0, 39, 39, 39, 2001, 1, 1, 0.01, fmri_v320180222085601, 400, Wed Mar 21 2018 09:14:27 GMT-0700 (PDT), stroop, 60, , , , , , , 0, -1, -1, 0, 2001, 40, R, 0, 0.013335214321633242, 0.013335214321633242, , 1.75600951524, 1475.919, 1475.919, , 13.574832698134365, 28, 1, , 5, 90, 0, 1, 1, 2.37999936122, 8, Why open a magazine?,  Read articles., 1, 1475.9180000000001, 1475.919, 0, 39, 39, 39, 2001, 1, 1, 0.01, fmri_v320180222085601, 400, Wed Mar 21 2018 09:14:27 GMT-0700 (PDT), stroop, 60
, , , , , , , , , , 0, -1, -1, 0, 2001, 41, L, 0, 0.013335214321633242, 0.013335214321633242, , 1.16107036623, 1475.92, 1475.921, , 18.422987233182354, 38, 1, , 5, 90, 0, 1, 1, 2.70375831461, 24, Why save money?,  Get fit., 3, 1475.919, 1475.92, 0, 40, 40, 40, 2001, 1, 1, 0.01, fmri_v320180222085601, 400, Wed Mar 21 2018 09:14:27 GMT-0700 (PDT), stroop, 60, , , , , , , 0, -1, -1, 0, 2001, 41, L, 0, 0.013335214321633242, 0.013335214321633242, , 1.16107036623, 1475.92, 1475.921, , 18.422987233182354, 38, 1, , 5, 90, 0, 1, 1, 2.70375831461, 24, Why save money?,  Get fit., 3, 1475.919, 1475.92, 0, 40, 40, 40, 2001, 1, 1, 0.01, fmri_v320180222085601, 400, Wed Mar 21 2018 09:14:27 GMT-0700 (PDT), stroop, 60
, , , , , , , , , , 0, -1, -1, 0, 2001, 42, R, 0, 0.013335214321633242, 0.013335214321633242, , 2.27828142437, 1475.922, 1475.922, , 9.696309070095975, 20, 1, , 5, 90, 0, 1, 1, 1.63756488893, 15, Why contact a friend?,  Feel connected., 3, 1475.921, 1475.921, 0, 41, 41, 41, 2001, 1, 1, 0.01, fmri_v320180222085601, 400, Wed Mar 21 2018 09:14:27 GMT-0700 (PDT), stroop, 60, , , , , , , 0, -1, -1, 0, 2001, 42, R, 0, 0.013335214321633242, 0.013335214321633242, , 2.27828142437, 1475.922, 1475.922, , 9.696309070095975, 20, 1, , 5, 90, 0, 1, 1, 1.63756488893, 15, Why contact a friend?,  Feel connected., 3, 1475.921, 1475.921, 0, 41, 41, 41, 2001, 1, 1, 0.01, fmri_v320180222085601, 400, Wed Mar 21 2018 09:14:27 GMT-0700 (PDT), stroop, 60
, , , , , , , , , , 0, -1, -1, 0, 2001, 43, R, 0, 0.013335214321633242, 0.013335214321633242, , 1.54697325497, 1475.923, 1475.924, , 10.665939977105571, 22, 1, , 5, 90, 0, 1, 1, 1.2719067143, 14, Why lift weights?,  Build muscles., 2, 1475.922, 1475.923, 0, 42, 42, 42, 2001, 1, 1, 0.01, fmri_v320180222085601, 400, Wed Mar 21 2018 09:14:27 GMT-0700 (PDT), stroop, 60, , , , , , , 0, -1, -1, 0, 2001, 43, R, 0, 0.013335214321633242, 0.013335214321633242, , 1.54697325497, 1475.923, 1475.924, , 10.665939977105571, 22, 1, , 5, 90, 0, 1, 1, 1.2719067143, 14, Why lift weights?,  Build muscles., 2, 1475.922, 1475.923, 0, 42, 42, 42, 2001, 1, 1, 0.01, fmri_v320180222085601, 400, Wed Mar 21 2018 09:14:27 GMT-0700 (PDT), stroop, 60
, , , , , , , , , , 0, -1, -1, 0, 2001, 44, R, 0, 0.013335214321633242, 0.013335214321633242, , 1.62618860582, 1475.924, 1475.924, , 17.938171779677553, 37, 1, , 5, 90, 0, 1, 1, 1.25946074093, 43, Why go shopping?,  Make a purchase., 2, 1475.924, 1475.924, 0, 43, 43, 43, 2001, 1, 1, 0.01, fmri_v320180222085601, 400, Wed Mar 21 2018 09:14:27 GMT-0700 (PDT), stroop, 60, , , , , , , 0, -1, -1, 0, 2001, 44, R, 0, 0.013335214321633242, 0.013335214321633242, , 1.62618860582, 1475.924, 1475.924, , 17.938171779677553, 37, 1, , 5, 90, 0, 1, 1, 1.25946074093, 43, Why go shopping?,  Make a purchase., 2, 1475.924, 1475.924, 0, 43, 43, 43, 2001, 1, 1, 0.01, fmri_v320180222085601, 400, Wed Mar 21 2018 09:14:27 GMT-0700 (PDT), stroop, 60
, , , , , , , , , , 0, -1, -1, 0, 2001, 45, L, 0, 0.013335214321633242, 0.013335214321633242, , 5.14903496326, 1475.926, 1475.927, , 13.090017244629566, 27, 1, , 5, 90, 0, 1, 1, 3.49683430491, 38, How to show intelligence?,  Participate in class., 5, 1475.925, 1475.925, 0, 44, 44, 44, 2001, 1, 1, 0.01, fmri_v320180222085601, 400, Wed Mar 21 2018 09:14:27 GMT-0700 (PDT), stroop, 60, , , , , , , 0, -1, -1, 0, 2001, 45, L, 0, 0.013335214321633242, 0.013335214321633242, , 5.14903496326, 1475.926, 1475.927, , 13.090017244629566, 27, 1, , 5, 90, 0, 1, 1, 3.49683430491, 38, How to show intelligence?,  Participate in class., 5, 1475.925, 1475.925, 0, 44, 44, 44, 2001, 1, 1, 0.01, fmri_v320180222085601, 400, Wed Mar 21 2018 09:14:27 GMT-0700 (PDT), stroop, 60
, , , , , , , , , , 0, -1, -1, 0, 2001, 46, L, 0, 0.013335214321633242, 0.013335214321633242, , 1.05800759227, 1475.931, 1475.931, , 10.181124523600774, 21, 1, , 5, 90, 0, 1, 1, 2.12892637848, 35, How to teach others?,  Give a lecture., 5, 1475.929, 1475.929, 0, 45, 45, 45, 2001, 1, 1, 0.01, fmri_v320180222085601, 400, Wed Mar 21 2018 09:14:27 GMT-0700 (PDT), stroop, 60, , , , , , , 0, -1, -1, 0, 2001, 46, L, 0, 0.013335214321633242, 0.013335214321633242, , 1.05800759227, 1475.931, 1475.931, , 10.181124523600774, 21, 1, , 5, 90, 0, 1, 1, 2.12892637848, 35, How to teach others?,  Give a lecture., 5, 1475.929, 1475.929, 0, 45, 45, 45, 2001, 1, 1, 0.01, fmri_v320180222085601, 400, Wed Mar 21 2018 09:14:27 GMT-0700 (PDT), stroop, 60
, , , , , , , , , , 0, -1, -1, 0, 2001, 47, L, 0, 0.013335214321633242, 0.013335214321633242, , 2.31103747658, 1475.932, 1475.933, , 13.574832698134365, 28, 1, , 5, 90, 0, 1, 1, 2.49103489112, 4, How to mix a cocktail?,  Stir ingredients., 4, 1475.932, 1475.932, 0, 46, 46, 46, 2001, 1, 1, 0.01, fmri_v320180222085601, 400, Wed Mar 21 2018 09:14:27 GMT-0700 (PDT), stroop, 60, , , , , , , 0, -1, -1, 0, 2001, 47, L, 0, 0.013335214321633242, 0.013335214321633242, , 2.31103747658, 1475.932, 1475.933, , 13.574832698134365, 28, 1, , 5, 90, 0, 1, 1, 2.49103489112, 4, How to mix a cocktail?,  Stir ingredients., 4, 1475.932, 1475.932, 0, 46, 46, 46, 2001, 1, 1, 0.01, fmri_v320180222085601, 400, Wed Mar 21 2018 09:14:27 GMT-0700 (PDT), stroop, 60
, , , , , , , , , , 0, -1, -1, 0, 2001, 48, R, 0, 0.013335214321633242, 0.013335214321633242, , 1.29350099707, 1475.934, 1475.935, , 14.059648151639164, 29, 1, , 5, 90, 0, 1, 1, 1.25367689391, 33, How to paint a picture?,  Use a brush., 4, 1475.934, 1475.934, 0, 47, 47, 47, 2001, 1, 1, 0.01, fmri_v320180222085601, 400, Wed Mar 21 2018 09:14:27 GMT-0700 (PDT), stroop, 60, , , , , , , 0, -1, -1, 0, 2001, 48, R, 0, 0.013335214321633242, 0.013335214321633242, , 1.29350099707, 1475.934, 1475.935, , 14.059648151639164, 29, 1, , 5, 90, 0, 1, 1, 1.25367689391, 33, How to paint a picture?,  Use a brush., 4, 1475.934, 1475.934, 0, 47, 47, 47, 2001, 1, 1, 0.01, fmri_v320180222085601, 400, Wed Mar 21 2018 09:14:27 GMT-0700 (PDT), stroop, 60
, , , , , , , , , , 0, -1, -1, 0, 2001, 49, L, 0, 0.013335214321633242, 0.013335214321633242, , 1.18144739701, 1475.937, 1475.937, , 15.51409451215356, 32, 1, , 5, 90, 0, 1, 1, 1.13386911758, 6, How to feel well?,  Reduce pain., 6, 1475.936, 1475.937, 0, 48, 48, 48, 2001, 1, 1, 0.01, fmri_v320180222085601, 400, Wed Mar 21 2018 09:14:27 GMT-0700 (PDT), stroop, 60, , , , , , , 0, -1, -1, 0, 2001, 49, L, 0, 0.013335214321633242, 0.013335214321633242, , 1.18144739701, 1475.937, 1475.937, , 15.51409451215356, 32, 1, , 5, 90, 0, 1, 1, 1.13386911758, 6, How to feel well?,  Reduce pain., 6, 1475.936, 1475.937, 0, 48, 48, 48, 2001, 1, 1, 0.01, fmri_v320180222085601, 400, Wed Mar 21 2018 09:14:27 GMT-0700 (PDT), stroop, 60
, , , , , , , , , , 0, -1, -1, 0, 2001, 50, R, 0, 0.013335214321633242, 0.013335214321633242, , 3.02293358567, 1475.938, 1475.938, , 19.39261814019195, 40, 1, , 5, 90, 0, 1, 1, 2.99839087486, 7, How to show cleanliness?,  Write an email., 6, 1475.938, 1475.938, 0, 49, 49, 49, 2001, 1, 1, 0.01, fmri_v320180222085601, 400, Wed Mar 21 2018 09:14:27 GMT-0700 (PDT), stroop, 60, , , , , , , 0, -1, -1, 0, 2001, 50, R, 0, 0.013335214321633242, 0.013335214321633242, , 3.02293358567, 1475.938, 1475.938, , 19.39261814019195, 40, 1, , 5, 90, 0, 1, 1, 2.99839087486, 7, How to show cleanliness?,  Write an email., 6, 1475.938, 1475.938, 0, 49, 49, 49, 2001, 1, 1, 0.01, fmri_v320180222085601, 400, Wed Mar 21 2018 09:14:27 GMT-0700 (PDT), stroop, 60
, , , , , , , , , , 0, -1, -1, 0, 2001, 51, L, 0, 0.013335214321633242, 0.013335214321633242, , 1.83225508372, 1475.94, 1475.941, , 14.544463605143962, 30, 1, , 5, 90, 0, 1, 1, 2.71168460131, 48, Why use a camera?,  Give to charity., 2, 1475.939, 1475.939, 0, 50, 50, 50, 2001, 1, 1, 0.01, fmri_v320180222085601, 400, Wed Mar 21 2018 09:14:27 GMT-0700 (PDT), stroop, 60, , , , , , , 0, -1, -1, 0, 2001, 51, L, 0, 0.013335214321633242, 0.013335214321633242, , 1.83225508372, 1475.94, 1475.941, , 14.544463605143962, 30, 1, , 5, 90, 0, 1, 1, 2.71168460131, 48, Why use a camera?,  Give to charity., 2, 1475.939, 1475.939, 0, 50, 50, 50, 2001, 1, 1, 0.01, fmri_v320180222085601, 400, Wed Mar 21 2018 09:14:27 GMT-0700 (PDT), stroop, 60
, , , , , , , , , , 0, -1, -1, 0, 2001, 52, L, 0, 0.013335214321633242, 0.013335214321633242, , 1.03122006333, 1475.941, 1475.941, , 16.968540872667955, 35, 1, , 5, 90, 0, 1, 1, 2.57040497292, 0, Why open a browser?,  Write an email., 2, 1475.941, 1475.941, 0, 51, 51, 51, 2001, 1, 1, 0.01, fmri_v320180222085601, 400, Wed Mar 21 2018 09:14:27 GMT-0700 (PDT), stroop, 60, , , , , , , 0, -1, -1, 0, 2001, 52, L, 0, 0.013335214321633242, 0.013335214321633242, , 1.03122006333, 1475.941, 1475.941, , 16.968540872667955, 35, 1, , 5, 90, 0, 1, 1, 2.57040497292, 0, Why open a browser?,  Write an email., 2, 1475.941, 1475.941, 0, 51, 51, 51, 2001, 1, 1, 0.01, fmri_v320180222085601, 400, Wed Mar 21 2018 09:14:27 GMT-0700 (PDT), stroop, 60
, , , , , , , , , , 0, -1, -1, 0, 2001, 53, R, 0, 0.013335214321633242, 0.013335214321633242, , 1.52566131773, 1475.943, 1475.944, , 11.15075543061037, 23, 1, , 5, 90, 0, 1, 1, 1.99758094611, 26, Why drink coffee?,  Consume caffeine., 1, 1475.942, 1475.942, 0, 52, 52, 52, 2001, 1, 1, 0.01, fmri_v320180222085601, 400, Wed Mar 21 2018 09:14:27 GMT-0700 (PDT), stroop, 60, , , , , , , 0, -1, -1, 0, 2001, 53, R, 0, 0.013335214321633242, 0.013335214321633242, , 1.52566131773, 1475.943, 1475.944, , 11.15075543061037, 23, 1, , 5, 90, 0, 1, 1, 1.99758094611, 26, Why drink coffee?,  Consume caffeine., 1, 1475.942, 1475.942, 0, 52, 52, 52, 2001, 1, 1, 0.01, fmri_v320180222085601, 400, Wed Mar 21 2018 09:14:27 GMT-0700 (PDT), stroop, 60
, , , , , , , , , , 0, -1, -1, 0, 2001, 54, R, 0, 0.013335214321633242, 0.013335214321633242, , 2.60923419676, 1475.944, 1475.945, , 12.605201791124767, 26, 1, , 5, 90, 0, 1, 1, 1.51360052937, 11, Why stir ingredients?,  Mix a cocktail., 1, 1475.944, 1475.944, 0, 53, 53, 53, 2001, 1, 1, 0.01, fmri_v320180222085601, 400, Wed Mar 21 2018 09:14:27 GMT-0700 (PDT), stroop, 60, , , , , , , 0, -1, -1, 0, 2001, 54, R, 0, 0.013335214321633242, 0.013335214321633242, , 2.60923419676, 1475.944, 1475.945, , 12.605201791124767, 26, 1, , 5, 90, 0, 1, 1, 1.51360052937, 11, Why stir ingredients?,  Mix a cocktail., 1, 1475.944, 1475.944, 0, 53, 53, 53, 2001, 1, 1, 0.01, fmri_v320180222085601, 400, Wed Mar 21 2018 09:14:27 GMT-0700 (PDT), stroop, 60
, , , , , , , , , , 0, -1, -1, 0, 2001, 55, R, 0, 0.013335214321633242, 0.013335214321633242, , 1.60658557831, 1475.946, 1475.9470000000001, , 18.907802686687152, 39, 1, , 5, 90, 0, 1, 1, 1.37533755565, 59, How to reduce pain?,  Consume medicine., 5, 1475.945, 1475.945, 0, 54, 54, 54, 2001, 1, 1, 0.01, fmri_v320180222085601, 400, Wed Mar 21 2018 09:14:27 GMT-0700 (PDT), stroop, 60, , , , , , , 0, -1, -1, 0, 2001, 55, R, 0, 0.013335214321633242, 0.013335214321633242, , 1.60658557831, 1475.946, 1475.9470000000001, , 18.907802686687152, 39, 1, , 5, 90, 0, 1, 1, 1.37533755565, 59, How to reduce pain?,  Consume medicine., 5, 1475.945, 1475.945, 0, 54, 54, 54, 2001, 1, 1, 0.01, fmri_v320180222085601, 400, Wed Mar 21 2018 09:14:27 GMT-0700 (PDT), stroop, 60
, , , , , , , , , , 0, -1, -1, 0, 2001, 56, L, 0, 0.013335214321633242, 0.013335214321633242, , 1.33526864478, 1475.949, 1475.949, , 16.483725419163157, 34, 1, , 5, 90, 0, 1, 1, 2.2448188097, 10, How to satisfy hunger?,  Make breakfast., 5, 1475.9470000000001, 1475.948, 0, 55, 55, 55, 2001, 1, 1, 0.01, fmri_v320180222085601, 400, Wed Mar 21 2018 09:14:27 GMT-0700 (PDT), stroop, 60, , , , , , , 0, -1, -1, 0, 2001, 56, L, 0, 0.013335214321633242, 0.013335214321633242, , 1.33526864478, 1475.949, 1475.949, , 16.483725419163157, 34, 1, , 5, 90, 0, 1, 1, 2.2448188097, 10, How to satisfy hunger?,  Make breakfast., 5, 1475.9470000000001, 1475.948, 0, 55, 55, 55, 2001, 1, 1, 0.01, fmri_v320180222085601, 400, Wed Mar 21 2018 09:14:27 GMT-0700 (PDT), stroop, 60
, , , , , , , , , , 0, -1, -1, 0, 2001, 57, L, 0, 0.013335214321633242, 0.013335214321633242, , 3.80362173878, 1475.951, 1475.951, , 17.453356326172756, 36, 1, , 5, 90, 0, 1, 1, 1.28055366591, 53, How to participate in class?,  Raise a hand., 4, 1475.949, 1475.951, 0, 56, 56, 56, 2001, 1, 1, 0.01, fmri_v320180222085601, 400, Wed Mar 21 2018 09:14:27 GMT-0700 (PDT), stroop, 60, , , , , , , 0, -1, -1, 0, 2001, 57, L, 0, 0.013335214321633242, 0.013335214321633242, , 3.80362173878, 1475.951, 1475.951, , 17.453356326172756, 36, 1, , 5, 90, 0, 1, 1, 1.28055366591, 53, How to participate in class?,  Raise a hand., 4, 1475.949, 1475.951, 0, 56, 56, 56, 2001, 1, 1, 0.01, fmri_v320180222085601, 400, Wed Mar 21 2018 09:14:27 GMT-0700 (PDT), stroop, 60
, , , , , , , , , , 0, -1, -1, 0, 2001, 58, L, 0, 0.013335214321633242, 0.013335214321633242, , 1.0090185458, 1475.952, 1475.952, , 11.63557088411517, 24, 1, , 5, 90, 0, 1, 1, 1.7472927518, 9, How to consume caffeine?,  Press buttons., 4, 1475.951, 1475.952, 0, 57, 57, 57, 2001, 1, 1, 0.01, fmri_v320180222085601, 400, Wed Mar 21 2018 09:14:27 GMT-0700 (PDT), stroop, 60, , , , , , , 0, -1, -1, 0, 2001, 58, L, 0, 0.013335214321633242, 0.013335214321633242, , 1.0090185458, 1475.952, 1475.952, , 11.63557088411517, 24, 1, , 5, 90, 0, 1, 1, 1.7472927518, 9, How to consume caffeine?,  Press buttons., 4, 1475.951, 1475.952, 0, 57, 57, 57, 2001, 1, 1, 0.01, fmri_v320180222085601, 400, Wed Mar 21 2018 09:14:27 GMT-0700 (PDT), stroop, 60
, , , , , , , , , , 0, -1, -1, 0, 2001, 59, R, 0, 0.013335214321633242, 0.013335214321633242, , 2.56401886836, 1475.953, 1475.954, , 12.120386337619967, 25, 1, , 5, 90, 0, 1, 1, 1.15737546884, 17, Why share ideas?,  Show intellect., 3, 1475.953, 1475.953, 0, 58, 58, 58, 2001, 1, 1, 0.01, fmri_v320180222085601, 400, Wed Mar 21 2018 09:14:27 GMT-0700 (PDT), stroop, 60, , , , , , , 0, -1, -1, 0, 2001, 59, R, 0, 0.013335214321633242, 0.013335214321633242, , 2.56401886836, 1475.953, 1475.954, , 12.120386337619967, 25, 1, , 5, 90, 0, 1, 1, 1.15737546884, 17, Why share ideas?,  Show intellect., 3, 1475.953, 1475.953, 0, 58, 58, 58, 2001, 1, 1, 0.01, fmri_v320180222085601, 400, Wed Mar 21 2018 09:14:27 GMT-0700 (PDT), stroop, 60
, , , , , , , , , , 0, -1, -1, 0, 2001, 60, R, 0.0009999999999763531, 0.013335214321633242, 0.013335214321633242, , 1.69958890871, 1475.955, 1475.955, , 15.029279058648761, 31, 1, , 5, 90, 0, 1, 1, 3.43547447616, 1, Why attend a school?,  Get a degree., 3, 1475.954, 1475.954, 0, 59, 59, 59, 2001, 1, 1, 0.01, fmri_v320180222085601, 400, Wed Mar 21 2018 09:14:27 GMT-0700 (PDT), stroop, 60, , , , , , , 0, -1, -1, 0, 2001, 60, R, 0.0009999999999763531, 0.013335214321633242, 0.013335214321633242, , 1.69958890871, 1475.955, 1475.955, , 15.029279058648761, 31, 1, , 5, 90, 0, 1, 1, 3.43547447616, 1, Why attend a school?,  Get a degree., 3, 1475.954, 1475.954, 0, 59, 59, 59, 2001, 1, 1, 0.01, fmri_v320180222085601, 400, Wed Mar 21 2018 09:14:27 GMT-0700 (PDT), stroop, 60
