resp_fMRI.keys, resp_fMRI.rt, construal_resp.keys, construal_resp.rt, resp_trial.keys, resp_trial.rt, instructionLoop.thisRepN, instructionLoop.thisTrialN, instructionLoop.thisN, instructionLoop.thisIndex, blocks.thisRepN, blocks.thisTrialN, blocks.thisN, blocks.thisIndex, Subject, Trial, SSonLorR, RT, startingK, endingK, TrialStart, ITI, choiceUp, choiceMade, TrialOver, SSamount, LLamount, Condition, Choice, SSdelay, LLdelay, salienceCondition, day, runid, TaskInterval, RewardTrialRanked, Construal_QuestionText, Construal_AnswerText, Construal_Condition, construal_trialUp, construal_trialComplete, trials_set1.thisRepN, trials_set1.thisTrialN, trials_set1.thisN, trials_set1.thisIndex, participant, session, run, k_val, designDir, total_time_limit, date, expName, frameRate
5, 1.7829999999999977, 1, 0.4690000000000012, , , , , , , 0, -1, -1, 0, 2000, 1, 2, 1.6679999999999993, 0.01, 0.01333521432163324, , 1.1039073215, 16.766, 18.435000000000002, , 25, 30, 1, 1, 5, 26, 1, 1, 1, 1.34502269476, 3, Why share ideas?,  Show intellect., 3, 13.43, 15.651000000000003, 0, 0, 0, 0, 2000, 1, 1, 0.01, fmri_v220180219183556, 200, Mon Feb 19 2018 18:43:24 GMT-0800 (PST), stroop, 60
, , 1, 0.6820000000000022, , , , , , , 0, -1, -1, 0, 2000, 2, 1, 0.7659999999999982, 0.01333521432163324, 0.01, , 1.07871365773, 24.042, 24.808, , 25, 30, 1, 2, 1, 16.197884186649116, 1, 1, 1, 2.38327980452, 28, Why save money?,  Get fit., 3, 20.520000000000003, 22.956000000000003, 0, 1, 1, 1, 2000, 1, 1, 0.01, fmri_v220180219183556, 200, Mon Feb 19 2018 18:43:24 GMT-0800 (PST), stroop, 60
, , , , , , , , , , 0, -1, -1, 0, 2000, 3, 1, 3.2049999999999983, 0.01, 0.007498942093324559, , 1.95895897411, 33.753, 36.958, , 25, 30, 1, 2, 4, 24.8, 1, 1, 1, 1.88003985742, 2, Why throw away trash?,  Make a list., 1, 27.778, 31.784, 0, 2, 2, 2, 2000, 1, 1, 0.01, fmri_v220180219183556, 200, Mon Feb 19 2018 18:43:24 GMT-0800 (PST), stroop, 60
, , , , , , , , , , 0, -1, -1, 0, 2000, 4, 1, 6.007000000000005, 0.007498942093324559, 0.007498942093324559, , 2.21451099245, 46.416, 52.423, , 25, 30, 1, , 7, 35.070428643266474, 1, 1, 1, 1.8811858104, 53, Why dial numbers?,  Make a phone call., 1, 40.193, 44.197, 0, 3, 3, 3, 2000, 1, 1, 0.01, fmri_v220180219183556, 200, Mon Feb 19 2018 18:43:24 GMT-0800 (PST), stroop, 60
, , , , , , , , , , 0, -1, -1, 0, 2000, 5, 1, 2.319999999999993, 0.007498942093324559, 0.01, , 1.24559281856, 58.93000000000001, 61.25, , 25, 30, 1, 1, 3, 30.270428643266477, 1, 1, 1, 1.03997512188, 32, How to read articles?,  Open a magazine., 4, 53.675, 57.679, 0, 4, 4, 4, 2000, 1, 1, 0.01, fmri_v220180219183556, 200, Mon Feb 19 2018 18:43:24 GMT-0800 (PST), stroop, 60
, , , , , , , , , , 0, -1, -1, 0, 2000, 6, 1, 0.5169999999999959, 0.01, 0.007498942093324559, , 2.88357426458, 72.045, 72.562, , 25, 30, 1, 2, 6, 27.200000000000003, 1, 1, 1, 5.46168450577, 20, How to watch television?,  Use a remote., 4, 65.155, 69.159, 0, 5, 5, 5, 2000, 1, 1, 0.01, fmri_v220180219183556, 200, Mon Feb 19 2018 18:43:24 GMT-0800 (PST), stroop, 60
, , 1, 0.4819999999999993, , , , , , , 0, -1, -1, 0, 2000, 7, 2, 0.5679999999999978, 0.007498942093324559, 0.01, , 1.70888830416, 79.253, 79.821, , 25, 30, 1, 1, 9, 37.47042864326649, 1, 1, 1, 1.21639389138, 19, How to feel nostalgia?,  Keep a memory., 6, 75.286, 77.534, 0, 6, 6, 6, 2000, 1, 1, 0.01, fmri_v220180219183556, 200, Mon Feb 19 2018 18:43:24 GMT-0800 (PST), stroop, 60
, , 1, 0.4159999999999968, , , , , , , 0, -1, -1, 0, 2000, 8, 1, 0.5169999999999959, 0.01, 0.01333521432163324, , 2.10363239445, 87.229, 87.746, , 25, 30, 1, 1, 8, 29.600000000000005, 1, 1, 1, 1.29616920219, 52, How to support a cause?,  Give to charity., 6, 82.94, 85.11, 0, 7, 7, 7, 2000, 1, 1, 0.01, fmri_v220180219183556, 200, Mon Feb 19 2018 18:43:24 GMT-0800 (PST), stroop, 60
, , 2, 0.3819999999999908, , , , , , , 0, -1, -1, 0, 2000, 9, 2, 0.46700000000001296, 0.01333521432163324, 0.01, , 1.48126731675, 93.853, 94.32000000000001, , 25, 30, 1, 2, 2, 17.397884186649105, 1, 1, 1, 1.73128069861, 27, Why participate in class?,  Show intelligence., 2, 90.233, 92.368, 0, 8, 8, 8, 2000, 1, 1, 0.01, fmri_v220180219183556, 200, Mon Feb 19 2018 18:43:24 GMT-0800 (PST), stroop, 60
, , 2, 0.48299999999997567, , , , , , , 0, -1, -1, 0, 2000, 10, 1, 0.7669999999999959, 0.01, 0.01333521432163324, , 1.33590290044, 100.244, 101.011, , 25, 30, 1, 1, 8, 29.600000000000005, 1, 1, 1, 2.38766705377, 46, Why enter a classroom?,  Attend a school., 2, 96.674, 98.90799999999999, 0, 9, 9, 9, 2000, 1, 1, 0.01, fmri_v220180219183556, 200, Mon Feb 19 2018 18:43:24 GMT-0800 (PST), stroop, 60
, , 1, 0.5509999999999877, , , , , , , 0, -1, -1, 0, 2000, 11, 2, 0.5689999999999884, 0.01333521432163324, 0.01, , 2.81144621883, 109.95500000000001, 110.523, , 25, 30, 1, 2, 4, 19.797884186649128, 1, 1, 1, 4.66026696524, 45, How to make a donation?,  Mix a cocktail., 5, 104.832, 107.13499999999999, 0, 10, 10, 10, 2000, 1, 1, 0.01, fmri_v220180219183556, 200, Mon Feb 19 2018 18:43:24 GMT-0800 (PST), stroop, 60
, , 2, 0.6850000000000023, , , , , , , 0, -1, -1, 0, 2000, 12, 2, 0.7189999999999941, 0.01, 0.007498942093324559, , 2.01322389212, 117.99700000000001, 118.71600000000001, , 25, 30, 1, 2, 6, 27.200000000000003, 1, 1, 1, 2.3640810896, 36, How to give to charity?,  Use a camera., 5, 113.542, 115.97900000000001, 0, 11, 11, 11, 2000, 1, 1, 0.01, fmri_v220180219183556, 200, Mon Feb 19 2018 18:43:24 GMT-0800 (PST), stroop, 60
, , 1, 0.46699999999998454, , , , , , , 0, -1, -1, 0, 2000, 13, 2, 1.0190000000000055, 0.007498942093324559, 0.005623413251903492, , 3.22837113602, 128.408, 129.427, , 25, 30, 1, 2, 7, 35.070428643266474, 1, 1, 1, 3.10316060392, 47, Why make art?,  Show creativity., 3, 122.952, 125.172, 0, 12, 12, 12, 2000, 1, 1, 0.01, fmri_v220180219183556, 200, Mon Feb 19 2018 18:43:24 GMT-0800 (PST), stroop, 60
, , 1, 0.578000000000003, , , , , , , 0, -1, -1, 0, 2000, 14, 1, 3.358000000000004, 0.005623413251903492, 0.00749894209332456, , 3.59491196764, 139.971, 143.329, , 25, 30, 1, 1, 1, 36.765588200778424, 1, 1, 1, 1.16103088301, 41, Why make a purchase?,  Satisfy a need., 3, 134.031, 136.367, 0, 13, 13, 13, 2000, 1, 1, 0.01, fmri_v220180219183556, 200, Mon Feb 19 2018 18:43:24 GMT-0800 (PST), stroop, 60
, , 1, 0.6009999999999991, , , , , , , 0, -1, -1, 0, 2000, 15, 2, 3.154000000000025, 0.00749894209332456, 0.010000000000000002, , 1.19356770194, 149.099, 152.25300000000001, , 25, 30, 1, 1, 3, 30.270428643266474, 1, 1, 1, 1.08494564473, 0, Why lift a glass?,  Drink wine., 1, 145.545, 147.899, 0, 14, 14, 14, 2000, 1, 1, 0.01, fmri_v220180219183556, 200, Mon Feb 19 2018 18:43:24 GMT-0800 (PST), stroop, 60
, , 2, 1.0670000000000073, , , , , , , 0, -1, -1, 0, 2000, 16, 1, 2.936000000000007, 0.010000000000000002, 0.0074989420933245605, , 1.87494381435, 159.846, 162.782, , 25, 30, 1, 2, 9, 30.8, 1, 1, 1, 1.10300777516, 35, Why open a magazine?,  Read articles., 1, 155.139, 157.959, 0, 15, 15, 15, 2000, 1, 1, 0.01, fmri_v220180219183556, 200, Mon Feb 19 2018 18:43:24 GMT-0800 (PST), stroop, 60
, , 1, 0.8349999999999795, , , , , , , 0, -1, -1, 0, 2000, 17, 1, 3.0360000000000014, 0.0074989420933245605, 0.010000000000000002, , 2.5685593655, 171.526, 174.562, , 25, 30, 1, 1, 6, 33.87042864326644, 1, 1, 1, 2.04980380389, 23, How to achieve success?,  Get a promotion., 6, 166.369, 168.956, 0, 16, 16, 16, 2000, 1, 1, 0.01, fmri_v220180219183556, 200, Mon Feb 19 2018 18:43:24 GMT-0800 (PST), stroop, 60
, , 1, 1.467000000000013, , , , , , , 0, -1, -1, 0, 2000, 18, 2, 2.8859999999999957, 0.010000000000000002, 0.013335214321633242, , 1.03581155448, 180.886, 183.772, , 25, 30, 1, 1, 1, 21.199999999999992, 1, 1, 1, 1.79475878945, 10, How to avoid mistakes?,  Obey laws., 6, 176.614, 179.834, 0, 17, 17, 17, 2000, 1, 1, 0.01, fmri_v220180219183556, 200, Mon Feb 19 2018 18:43:24 GMT-0800 (PST), stroop, 60
, , 1, 0.5509999999999877, , , , , , , 0, -1, -1, 0, 2000, 19, 2, 3.4539999999999793, 0.013335214321633242, 0.01778279410038923, , 1.03112327012, 189.145, 192.599, , 25, 30, 1, 1, 2, 17.3978841866491, 1, 1, 1, 2.68183503118, 12, How to contact a friend?,  Make a phone call., 5, 185.808, 188.112, 0, 18, 18, 18, 2000, 1, 1, 0.01, fmri_v220180219183556, 200, Mon Feb 19 2018 18:43:24 GMT-0800 (PST), stroop, 60
, , , , , , , , , , 0, -1, -1, 0, 2000, 20, 2, 0, 0.01778279410038923, 0.01778279410038923, , 1.60464339606, 193.603, 193.605, , 25, 30, 1, , 5, 17.24682650380699, 1, 1, 1, 1.19620850689, 42, How to get a promotion?,  Arrive on time., 5, 193.601, 193.602, 0, 19, 19, 19, 2000, 1, 1, 0.01, fmri_v220180219183556, 200, Mon Feb 19 2018 18:43:24 GMT-0800 (PST), stroop, 60
, , , , , , , , , , 0, -1, -1, 0, 2000, 21, 2, 0, 0.01778279410038923, 0.01778279410038923, , 1.86478467062, 193.61, 193.612, , 25, 30, 1, , 3, 14.846826503806989, 1, 1, 1, 1.80727434749, 6, How to write a song?,  Play piano., 4, 193.607, 193.608, 0, 20, 20, 20, 2000, 1, 1, 0.01, fmri_v220180219183556, 200, Mon Feb 19 2018 18:43:24 GMT-0800 (PST), stroop, 60
, , , , , , , , , , 0, -1, -1, 0, 2000, 22, 2, 0, 0.01778279410038923, 0.01778279410038923, , 1.97231945934, 193.614, 193.616, , 25, 30, 1, , 4, 16.046826503806976, 1, 1, 1, 1.03676776773, 48, How to give applause?,  Clap hands., 4, 193.613, 193.614, 0, 21, 21, 21, 2000, 1, 1, 0.01, fmri_v220180219183556, 200, Mon Feb 19 2018 18:43:24 GMT-0800 (PST), stroop, 60
, , , , , , , , , , 0, -1, -1, 0, 2000, 23, 1, 0, 0.01778279410038923, 0.01778279410038923, , 3.46999674659, 193.619, 193.621, , 25, 30, 1, , 8, 20.846826503806987, 1, 1, 1, 1.78406375254, 30, Why give a lecture?,  Teach others., 2, 193.617, 193.617, 0, 22, 22, 22, 2000, 1, 1, 0.01, fmri_v220180219183556, 200, Mon Feb 19 2018 18:43:24 GMT-0800 (PST), stroop, 60
, , , , , , , , , , 0, -1, -1, 0, 2000, 24, 1, 0, 0.01778279410038923, 0.01778279410038923, , 2.34785828636, 193.623, 193.624, , 25, 30, 1, , 9, 22.046826503806976, 1, 1, 1, 1.27001723341, 43, Why paint a picture?,  Make art., 2, 193.622, 193.622, 0, 23, 23, 23, 2000, 1, 1, 0.01, fmri_v220180219183556, 200, Mon Feb 19 2018 18:43:24 GMT-0800 (PST), stroop, 60
, , , , , , , , , , 0, -1, -1, 0, 2000, 25, 1, 0, 0.01778279410038923, 0.01778279410038923, , 1.78957733761, 193.627, 193.62800000000001, , 25, 30, 1, , 8, 20.846826503806987, 1, 1, 1, 1.85034656761, 13, How to make art?,  Paint a picture., 5, 193.625, 193.625, 0, 24, 24, 24, 2000, 1, 1, 0.01, fmri_v220180219183556, 200, Mon Feb 19 2018 18:43:24 GMT-0800 (PST), stroop, 60
, , , , , , , , , , 0, -1, -1, 0, 2000, 26, 1, 0, 0.01778279410038923, 0.01778279410038923, , 1.25479366907, 193.63, 193.631, , 25, 30, 1, , 2, 13.646826503806977, 1, 1, 1, 2.23249500305, 22, How to attend a school?,  Enter a classroom., 5, 193.629, 193.629, 0, 25, 25, 25, 2000, 1, 1, 0.01, fmri_v220180219183556, 200, Mon Feb 19 2018 18:43:24 GMT-0800 (PST), stroop, 60
, , , , , , , , , , 0, -1, -1, 0, 2000, 27, 2, 0, 0.01778279410038923, 0.01778279410038923, , 2.11115753363, 193.633, 193.635, , 25, 30, 1, , 9, 22.046826503806976, 1, 1, 1, 1.3854190398, 8, Why use credit cards?,  Go shopping., 1, 193.632, 193.633, 0, 26, 26, 26, 2000, 1, 1, 0.01, fmri_v220180219183556, 200, Mon Feb 19 2018 18:43:24 GMT-0800 (PST), stroop, 60
, , , , , , , , , , 0, -1, -1, 0, 2000, 28, 2, 0, 0.01778279410038923, 0.01778279410038923, , 2.95757742392, 193.638, 193.639, , 25, 30, 1, , 1, 12.446826503806978, 1, 1, 1, 1.96747530482, 34, Why use a remote?,  Watch television., 1, 193.635, 193.637, 0, 27, 27, 27, 2000, 1, 1, 0.01, fmri_v220180219183556, 200, Mon Feb 19 2018 18:43:24 GMT-0800 (PST), stroop, 60
, , , , , , , , , , 0, -1, -1, 0, 2000, 29, 2, 0, 0.01778279410038923, 0.01778279410038923, , 2.4401975206, 193.643, 193.644, , 25, 30, 1, , 6, 18.446826503806978, 1, 1, 1, 1.07762362835, 40, How to satisfy a need?,  Make a purchase., 6, 193.64000000000001, 193.64000000000001, 0, 28, 28, 28, 2000, 1, 1, 0.01, fmri_v220180219183556, 200, Mon Feb 19 2018 18:43:24 GMT-0800 (PST), stroop, 60
, , , , , , , , , , 0, -1, -1, 0, 2000, 30, 1, 0, 0.01778279410038923, 0.01778279410038923, , 2.07541150401, 193.652, 193.655, , 25, 30, 1, , 4, 16.046826503806976, 1, 1, 1, 2.89977372077, 4, How to express a talent?,  Entertain others., 6, 193.645, 193.648, 0, 29, 29, 29, 2000, 1, 1, 0.01, fmri_v220180219183556, 200, Mon Feb 19 2018 18:43:24 GMT-0800 (PST), stroop, 60
, , , , , , , , , , 0, -1, -1, 0, 2000, 31, 2, 0, 0.01778279410038923, 0.01778279410038923, , 1.65547106168, 193.657, 193.661, , 25, 30, 1, , 5, 17.24682650380699, 1, 1, 1, 2.90491499311, 57, How to open a browser?,  Click a mouse., 4, 193.656, 193.656, 0, 30, 30, 30, 2000, 1, 1, 0.01, fmri_v220180219183556, 200, Mon Feb 19 2018 18:43:24 GMT-0800 (PST), stroop, 60
, , , , , , , , , , 0, -1, -1, 0, 2000, 32, 1, 0, 0.01778279410038923, 0.01778279410038923, , 1.20153456362, 193.663, 193.664, , 25, 30, 1, , 3, 14.846826503806989, 1, 1, 1, 2.30738312596, 56, How to make a phone call?,  Dial numbers., 4, 193.661, 193.661, 0, 31, 31, 31, 2000, 1, 1, 0.01, fmri_v220180219183556, 200, Mon Feb 19 2018 18:43:24 GMT-0800 (PST), stroop, 60
, , , , , , , , , , 0, -1, -1, 0, 2000, 33, 2, 0, 0.01778279410038923, 0.01778279410038923, , 1.07715336233, 193.672, 193.674, , 25, 30, 1, , 5, 17.24682650380699, 1, 1, 1, 1.88368428635, 58, Why clip coupons?,  Save money., 2, 193.665, 193.671, 0, 32, 32, 32, 2000, 1, 1, 0.01, fmri_v220180219183556, 200, Mon Feb 19 2018 18:43:24 GMT-0800 (PST), stroop, 60
, , , , , , , , , , 0, -1, -1, 0, 2000, 34, 1, 0.005000000000023874, 0.01778279410038923, 0.01778279410038923, , 1.902036098, 193.681, 193.682, , 25, 30, 1, , 9, 22.046826503806976, 1, 1, 1, 1.14245816771, 49, Why open a browser?,  Write an email., 2, 193.675, 193.675, 0, 33, 33, 33, 2000, 1, 1, 0.01, fmri_v220180219183556, 200, Mon Feb 19 2018 18:43:24 GMT-0800 (PST), stroop, 60
, , , , , , , , , , 0, -1, -1, 0, 2000, 35, 2, 0.0010000000000047748, 0.01778279410038923, 0.01778279410038923, , 3.57480686703, 193.686, 193.688, , 25, 30, 1, , 3, 14.846826503806989, 1, 1, 1, 3.10716717018, 31, Why build muscles?,  Show humility., 3, 193.685, 193.685, 0, 34, 34, 34, 2000, 1, 1, 0.01, fmri_v220180219183556, 200, Mon Feb 19 2018 18:43:24 GMT-0800 (PST), stroop, 60
, , , , , , , , , , 0, -1, -1, 0, 2000, 36, 1, 0, 0.01778279410038923, 0.01778279410038923, , 1.74527248203, 193.689, 193.691, , 25, 30, 1, , 1, 12.446826503806978, 1, 1, 1, 1.4775185621, 5, Why gain knowledge?,  Improve oneself., 3, 193.688, 193.688, 0, 35, 35, 35, 2000, 1, 1, 0.01, fmri_v220180219183556, 200, Mon Feb 19 2018 18:43:24 GMT-0800 (PST), stroop, 60
, , , , , , , , , , 0, -1, -1, 0, 2000, 37, 1, 0, 0.01778279410038923, 0.01778279410038923, , 1.68454304779, 193.693, 193.695, , 25, 30, 1, , 4, 16.046826503806976, 1, 1, 1, 4.91978286587, 25, Why provide food?,  Help a person., 3, 193.691, 193.692, 0, 36, 36, 36, 2000, 1, 1, 0.01, fmri_v220180219183556, 200, Mon Feb 19 2018 18:43:24 GMT-0800 (PST), stroop, 60
, , , , , , , , , , 0, -1, -1, 0, 2000, 38, 2, 0, 0.01778279410038923, 0.01778279410038923, , 2.08917815069, 193.697, 193.698, , 25, 30, 1, , 8, 20.846826503806987, 1, 1, 1, 1.12802962431, 54, Why show competence?,  Pass the time., 3, 193.695, 193.696, 0, 37, 37, 37, 2000, 1, 1, 0.01, fmri_v220180219183556, 200, Mon Feb 19 2018 18:43:24 GMT-0800 (PST), stroop, 60
, , , , , , , , , , 0, -1, -1, 0, 2000, 39, 1, 0, 0.01778279410038923, 0.01778279410038923, , 2.8542756704, 193.7, 193.701, , 25, 30, 1, , 7, 19.646826503806977, 1, 1, 1, 1.40811786158, 37, How to avoid diseases?,  Kill germs., 5, 193.698, 193.699, 0, 38, 38, 38, 2000, 1, 1, 0.01, fmri_v220180219183556, 200, Mon Feb 19 2018 18:43:24 GMT-0800 (PST), stroop, 60
, , , , , , , , , , 0, -1, -1, 0, 2000, 40, 2, 0, 0.01778279410038923, 0.01778279410038923, , 2.4373137281, 193.704, 193.705, , 25, 30, 1, , 6, 18.446826503806978, 1, 1, 1, 1.21018674318, 16, How to provide food?,  Prepare meals., 5, 193.703, 193.703, 0, 39, 39, 39, 2000, 1, 1, 0.01, fmri_v220180219183556, 200, Mon Feb 19 2018 18:43:24 GMT-0800 (PST), stroop, 60
, , , , , , , , , , 0, -1, -1, 0, 2000, 41, 1, 0, 0.01778279410038923, 0.01778279410038923, , 1.03953366771, 193.708, 193.709, , 25, 30, 1, , 3, 14.846826503806989, 1, 1, 1, 1.90841479532, 59, Why go shopping?,  Make a purchase., 2, 193.707, 193.707, 0, 40, 40, 40, 2000, 1, 1, 0.01, fmri_v220180219183556, 200, Mon Feb 19 2018 18:43:24 GMT-0800 (PST), stroop, 60
, , , , , , , , , , 0, -1, -1, 0, 2000, 42, 2, 0.0009999999999763531, 0.01778279410038923, 0.01778279410038923, , 2.14024394299, 193.712, 193.713, , 25, 30, 1, , 8, 20.846826503806987, 1, 1, 1, 1.85273328791, 24, Why write a song?,  Seek advice., 2, 193.71, 193.711, 0, 41, 41, 41, 2000, 1, 1, 0.01, fmri_v220180219183556, 200, Mon Feb 19 2018 18:43:24 GMT-0800 (PST), stroop, 60
, , , , , , , , , , 0, -1, -1, 0, 2000, 43, 1, 0, 0.01778279410038923, 0.01778279410038923, , 1.5155090027, 193.716, 193.718, , 25, 30, 1, , 6, 18.446826503806978, 1, 1, 1, 1.38474010867, 33, Why use a brush?,  Paint a picture., 1, 193.714, 193.714, 0, 42, 42, 42, 2000, 1, 1, 0.01, fmri_v220180219183556, 200, Mon Feb 19 2018 18:43:24 GMT-0800 (PST), stroop, 60
, , , , , , , , , , 0, -1, -1, 0, 2000, 44, 2, 0.0010000000000047748, 0.01778279410038923, 0.01778279410038923, , 2.53654010349, 193.72, 193.722, , 25, 30, 1, , 9, 22.046826503806976, 1, 1, 1, 3.12261389386, 50, Why follow recipes?,  Prepare meals., 1, 193.718, 193.719, 0, 43, 43, 43, 2000, 1, 1, 0.01, fmri_v220180219183556, 200, Mon Feb 19 2018 18:43:24 GMT-0800 (PST), stroop, 60
, , , , , , , , , , 0, -1, -1, 0, 2000, 45, 2, 0, 0.01778279410038923, 0.01778279410038923, , 2.68819971102, 193.724, 193.725, , 25, 30, 1, , 4, 16.046826503806976, 1, 1, 1, 1.46861760972, 17, How to feel sociable?,  Hold a party., 6, 193.722, 193.723, 0, 44, 44, 44, 2000, 1, 1, 0.01, fmri_v220180219183556, 200, Mon Feb 19 2018 18:43:24 GMT-0800 (PST), stroop, 60
, , , , , , , , , , 0, -1, -1, 0, 2000, 46, 2, 0, 0.01778279410038923, 0.01778279410038923, , 1.31291611931, 193.728, 193.732, , 25, 30, 1, , 7, 19.646826503806977, 1, 1, 1, 1.99139253335, 29, How to show cleanliness?,  Write an email., 6, 193.727, 193.727, 0, 45, 45, 45, 2000, 1, 1, 0.01, fmri_v220180219183556, 200, Mon Feb 19 2018 18:43:24 GMT-0800 (PST), stroop, 60
, , , , , , , , , , 0, -1, -1, 0, 2000, 47, 1, 0, 0.01778279410038923, 0.01778279410038923, , 2.29387696997, 193.737, 193.741, , 25, 30, 1, , 5, 17.24682650380699, 1, 1, 1, 1.80338688034, 38, How to consume medicine?,  Take pills. , 4, 193.735, 193.735, 0, 46, 46, 46, 2000, 1, 1, 0.01, fmri_v220180219183556, 200, Mon Feb 19 2018 18:43:24 GMT-0800 (PST), stroop, 60
, , , , , , , , , , 0, -1, -1, 0, 2000, 48, 1, 0, 0.01778279410038923, 0.01778279410038923, , 1.49038831523, 193.744, 193.747, , 25, 30, 1, , 1, 12.446826503806978, 1, 1, 1, 1.02862906434, 39, How to dress formally?,  Wear ties. , 4, 193.742, 193.743, 0, 47, 47, 47, 2000, 1, 1, 0.01, fmri_v220180219183556, 200, Mon Feb 19 2018 18:43:24 GMT-0800 (PST), stroop, 60
, , , , , , , , , , 0, -1, -1, 0, 2000, 49, 2, 0.0010000000000047748, 0.01778279410038923, 0.01778279410038923, , 1.71358140518, 193.75300000000001, 193.755, , 25, 30, 1, , 7, 19.646826503806977, 1, 1, 1, 2.6513409533, 9, Why give to charity?,  Support a cause., 3, 193.748, 193.748, 0, 48, 48, 48, 2000, 1, 1, 0.01, fmri_v220180219183556, 200, Mon Feb 19 2018 18:43:24 GMT-0800 (PST), stroop, 60
, , , , , , , , , , 0, -1, -1, 0, 2000, 50, 2, 0.0010000000000047748, 0.01778279410038923, 0.01778279410038923, , 1.86789966369, 193.75900000000001, 193.76, , 25, 30, 1, , 6, 18.446826503806978, 1, 1, 1, 1.05310775405, 44, Why show appreciation?,  Spread joy., 3, 193.756, 193.757, 0, 49, 49, 49, 2000, 1, 1, 0.01, fmri_v220180219183556, 200, Mon Feb 19 2018 18:43:24 GMT-0800 (PST), stroop, 60
, , , , , , , , , , 0, -1, -1, 0, 2000, 51, 2, 0, 0.01778279410038923, 0.01778279410038923, , 3.9541802598, 193.762, 193.764, , 25, 30, 1, , 3, 14.846826503806989, 1, 1, 1, 1.88817616701, 1, How to show appreciation?,  Give applause., 5, 193.76, 193.761, 0, 50, 50, 50, 2000, 1, 1, 0.01, fmri_v220180219183556, 200, Mon Feb 19 2018 18:43:24 GMT-0800 (PST), stroop, 60
, , , , , , , , , , 0, -1, -1, 0, 2000, 52, 1, 0, 0.01778279410038923, 0.01778279410038923, , 1.60797874523, 193.767, 193.77, , 25, 30, 1, , 2, 13.646826503806977, 1, 1, 1, 3.33654899676, 21, How to express doubt?,  Use scissors., 5, 193.76500000000001, 193.76500000000001, 0, 51, 51, 51, 2000, 1, 1, 0.01, fmri_v220180219183556, 200, Mon Feb 19 2018 18:43:24 GMT-0800 (PST), stroop, 60
, , , , , , , , , , 0, -1, -1, 0, 2000, 53, 1, 0, 0.01778279410038923, 0.01778279410038923, , 1.64003449034, 193.773, 193.774, , 25, 30, 1, , 8, 20.846826503806987, 1, 1, 1, 1.7830036391, 15, How to paint a picture?,  Use a brush., 4, 193.772, 193.772, 0, 52, 52, 52, 2000, 1, 1, 0.01, fmri_v220180219183556, 200, Mon Feb 19 2018 18:43:24 GMT-0800 (PST), stroop, 60
, , , , , , , , , , 0, -1, -1, 0, 2000, 54, 1, 0, 0.01778279410038923, 0.01778279410038923, , 1.92598480374, 193.777, 193.779, , 25, 30, 1, , 9, 22.046826503806976, 1, 1, 1, 1.49163302789, 55, How to drink wine?,  Open a bottle. , 4, 193.775, 193.776, 0, 53, 53, 53, 2000, 1, 1, 0.01, fmri_v220180219183556, 200, Mon Feb 19 2018 18:43:24 GMT-0800 (PST), stroop, 60
, , , , , , , , , , 0, -1, -1, 0, 2000, 55, 2, 0, 0.01778279410038923, 0.01778279410038923, , 1.18460529027, 193.782, 193.785, , 25, 30, 1, , 5, 17.24682650380699, 1, 1, 1, 1.65077873844, 26, Why clap hands?,  Give applause., 1, 193.779, 193.781, 0, 54, 54, 54, 2000, 1, 1, 0.01, fmri_v220180219183556, 200, Mon Feb 19 2018 18:43:24 GMT-0800 (PST), stroop, 60
, , , , , , , , , , 0, -1, -1, 0, 2000, 56, 1, 0, 0.01778279410038923, 0.01778279410038923, , 1.46616568875, 193.788, 193.789, , 25, 30, 1, , 1, 12.446826503806978, 1, 1, 1, 1.10385460874, 51, Why use chalk?,  Get fit., 1, 193.786, 193.787, 0, 55, 55, 55, 2000, 1, 1, 0.01, fmri_v220180219183556, 200, Mon Feb 19 2018 18:43:24 GMT-0800 (PST), stroop, 60
, , , , , , , , , , 0, -1, -1, 0, 2000, 57, 1, 0, 0.01778279410038923, 0.01778279410038923, , 3.23597943714, 193.791, 193.792, , 25, 30, 1, , 6, 18.446826503806978, 1, 1, 1, 3.37905604909, 14, Why kill germs?,  Avoid diseases., 2, 193.789, 193.79, 0, 56, 56, 56, 2000, 1, 1, 0.01, fmri_v220180219183556, 200, Mon Feb 19 2018 18:43:24 GMT-0800 (PST), stroop, 60
, , , , , , , , , , 0, -1, -1, 0, 2000, 58, 2, 0, 0.01778279410038923, 0.01778279410038923, , 1.63405092229, 193.794, 193.798, , 25, 30, 1, , 1, 12.446826503806978, 1, 1, 1, 1.23600221442, 11, Why consume medicine?,  Reduce pain., 2, 193.793, 193.793, 0, 57, 57, 57, 2000, 1, 1, 0.01, fmri_v220180219183556, 200, Mon Feb 19 2018 18:43:24 GMT-0800 (PST), stroop, 60
, , , , , , , , , , 0, -1, -1, 0, 2000, 59, 2, 0, 0.01778279410038923, 0.01778279410038923, , 1.42796251117, 193.801, 193.802, , 25, 30, 1, , 5, 17.24682650380699, 1, 1, 1, 1.4321039969, 7, How to get a degree?,  Attend a school., 6, 193.798, 193.799, 0, 58, 58, 58, 2000, 1, 1, 0.01, fmri_v220180219183556, 200, Mon Feb 19 2018 18:43:24 GMT-0800 (PST), stroop, 60
, , , , , , , , , , 0, -1, -1, 0, 2000, 60, 1, 0, 0.01778279410038923, 0.01778279410038923, , 2.20893094768, 193.805, 193.806, , 25, 30, 1, , 9, 22.046826503806976, 1, 1, 1, 4.61563859956, 18, How to live a long life?,  Avoid diseases., 6, 193.803, 193.803, 0, 59, 59, 59, 2000, 1, 1, 0.01, fmri_v220180219183556, 200, Mon Feb 19 2018 18:43:24 GMT-0800 (PST), stroop, 60
