resp_fMRI.keys, resp_fMRI.rt, construal_resp.keys, construal_resp.rt, resp_trial.keys, resp_trial.rt, instructionLoop.thisRepN, instructionLoop.thisTrialN, instructionLoop.thisN, instructionLoop.thisIndex, blocks.thisRepN, blocks.thisTrialN, blocks.thisN, blocks.thisIndex, Subject, Trial, SSonLorR, RT, startingK, endingK, TrialStart, ITI, choiceUp, choiceMade, TrialOver, SSamount, LLamount, Condition, Choice, SSdelay, LLdelay, salienceCondition, day, runid, TaskInterval, RewardTrialRanked, Construal_QuestionText, Construal_AnswerText, Construal_Condition, construal_trialUp, construal_trialComplete, trials_set1.thisRepN, trials_set1.thisTrialN, trials_set1.thisN, trials_set1.thisIndex, participant, session, run, k_val, designDir, total_time_limit, date, expName, frameRate, instructionLoop.thisRepN, instructionLoop.thisTrialN, instructionLoop.thisN, instructionLoop.thisIndex, blocks.thisRepN, blocks.thisTrialN, blocks.thisN, blocks.thisIndex, Subject, Trial, SSonLorR, RT, startingK, endingK, TrialStart, ITI, choiceUp, choiceMade, TrialOver, SSamount, LLamount, Condition, Choice, SSdelay, LLdelay, salienceCondition, day, runid, TaskInterval, RewardTrialRanked, Construal_QuestionText, Construal_AnswerText, Construal_Condition, construal_trialUp, construal_trialComplete, trials_set1.thisRepN, trials_set1.thisTrialN, trials_set1.thisN, trials_set1.thisIndex, participant, session, run, k_val, designDir, total_time_limit, date, expName, frameRate
5, 2.7339999999999804, 2, 0.5320000000000107, , , , , , , 0, -1, -1, 0, 2000, 1, 2, 6.006999999999977, 0.01, 0.01, , 2.30638875208, 20.181999999999988, 26.188999999999993, , 14.368421052631579, 26, 1, , 5, 90, 0, 3, 2, 2.34803832092, 9, Why open a magazine?,  Read articles., 1, 15.576999999999998, 17.861999999999995, 0, 0, 0, 0, 2000, 3, 2, 0.01, fmri_v220180219183556, 35, Mon Feb 19 2018 21:13:44 GMT-0800 (PST), stroop, 60, , , , , 0, -1, -1, 0, 2000, 1, 2, 6.006999999999977, 0.01, 0.01, , 2.30638875208, 20.181999999999988, 26.188999999999993, , 14.368421052631579, 26, 1, , 5, 90, 0, 3, 2, 2.34803832092, 9, Why open a magazine?,  Read articles., 1, 15.576999999999998, 17.861999999999995, 0, 0, 0, 0, 2000, 3, 2, 0.01, fmri_v220180219183556, 35, Mon Feb 19 2018 21:13:44 GMT-0800 (PST), stroop, 60
, , , , , , , , , , 0, -1, -1, 0, 2000, 2, 1, 0, 0.01, 0.01, , 2.89164736758, 26.195999999999998, 26.199000000000012, , 17.131578947368425, 31, 1, , 5, 90, 0, 3, 2, 1.19575717455, 34, Why cut paper?,  Clip coupons., 1, 26.191000000000003, 26.192000000000007, 0, 1, 1, 1, 2000, 3, 2, 0.01, fmri_v220180219183556, 35, Mon Feb 19 2018 21:13:44 GMT-0800 (PST), stroop, 60, , , , , 0, -1, -1, 0, 2000, 2, 1, 0, 0.01, 0.01, , 2.89164736758, 26.195999999999998, 26.199000000000012, , 17.131578947368425, 31, 1, , 5, 90, 0, 3, 2, 1.19575717455, 34, Why cut paper?,  Clip coupons., 1, 26.191000000000003, 26.192000000000007, 0, 1, 1, 1, 2000, 3, 2, 0.01, fmri_v220180219183556, 35, Mon Feb 19 2018 21:13:44 GMT-0800 (PST), stroop, 60
, , , , , , , , , , 0, -1, -1, 0, 2000, 3, 1, 0, 0.01, 0.01, , 2.22592907333, 26.201999999999998, 26.215000000000003, , 12.710526315789476, 23, 1, , 5, 90, 0, 3, 2, 1.67872151752, 16, How to reduce worry?,  Plan ahead., 6, 26.199000000000012, 26.200999999999993, 0, 2, 2, 2, 2000, 3, 2, 0.01, fmri_v220180219183556, 35, Mon Feb 19 2018 21:13:44 GMT-0800 (PST), stroop, 60, , , , , 0, -1, -1, 0, 2000, 3, 1, 0, 0.01, 0.01, , 2.22592907333, 26.201999999999998, 26.215000000000003, , 12.710526315789476, 23, 1, , 5, 90, 0, 3, 2, 1.67872151752, 16, How to reduce worry?,  Plan ahead., 6, 26.199000000000012, 26.200999999999993, 0, 2, 2, 2, 2000, 3, 2, 0.01, fmri_v220180219183556, 35, Mon Feb 19 2018 21:13:44 GMT-0800 (PST), stroop, 60
, , , , , , , , , , 0, -1, -1, 0, 2000, 4, 2, 0, 0.01, 0.01, , 1.37949873403, 26.228999999999985, 26.24000000000001, , 19.894736842105267, 36, 1, , 5, 90, 0, 3, 2, 3.36518887933, 38, How to feel connected?,  Contact a friend., 6, 26.224999999999994, 26.22800000000001, 0, 3, 3, 3, 2000, 3, 2, 0.01, fmri_v220180219183556, 35, Mon Feb 19 2018 21:13:44 GMT-0800 (PST), stroop, 60, , , , , 0, -1, -1, 0, 2000, 4, 2, 0, 0.01, 0.01, , 1.37949873403, 26.228999999999985, 26.24000000000001, , 19.894736842105267, 36, 1, , 5, 90, 0, 3, 2, 3.36518887933, 38, How to feel connected?,  Contact a friend., 6, 26.224999999999994, 26.22800000000001, 0, 3, 3, 3, 2000, 3, 2, 0.01, fmri_v220180219183556, 35, Mon Feb 19 2018 21:13:44 GMT-0800 (PST), stroop, 60
, , , , , , , , , , 0, -1, -1, 0, 2000, 5, 1, 0, 0.01, 0.01, , 1.48468480938, 26.242999999999995, 26.25200000000001, , 12.157894736842106, 22, 1, , 5, 90, 0, 3, 2, 1.32982551352, 2, How to save money?,  Clip coupons., 5, 26.24199999999999, 26.242999999999995, 0, 4, 4, 4, 2000, 3, 2, 0.01, fmri_v220180219183556, 35, Mon Feb 19 2018 21:13:44 GMT-0800 (PST), stroop, 60, , , , , 0, -1, -1, 0, 2000, 5, 1, 0, 0.01, 0.01, , 1.48468480938, 26.242999999999995, 26.25200000000001, , 12.157894736842106, 22, 1, , 5, 90, 0, 3, 2, 1.32982551352, 2, How to save money?,  Clip coupons., 5, 26.24199999999999, 26.242999999999995, 0, 4, 4, 4, 2000, 3, 2, 0.01, fmri_v220180219183556, 35, Mon Feb 19 2018 21:13:44 GMT-0800 (PST), stroop, 60
, , , , , , , , , , 0, -1, -1, 0, 2000, 6, 2, 0, 0.01, 0.01, , 2.4705321907, 26.256, 26.25800000000001, , 17.684210526315788, 32, 1, , 5, 90, 0, 3, 2, 3.26954064783, 28, How to reduce pain?,  Consume medicine., 5, 26.25399999999999, 26.254999999999995, 0, 5, 5, 5, 2000, 3, 2, 0.01, fmri_v220180219183556, 35, Mon Feb 19 2018 21:13:44 GMT-0800 (PST), stroop, 60, , , , , 0, -1, -1, 0, 2000, 6, 2, 0, 0.01, 0.01, , 2.4705321907, 26.256, 26.25800000000001, , 17.684210526315788, 32, 1, , 5, 90, 0, 3, 2, 3.26954064783, 28, How to reduce pain?,  Consume medicine., 5, 26.25399999999999, 26.254999999999995, 0, 5, 5, 5, 2000, 3, 2, 0.01, fmri_v220180219183556, 35, Mon Feb 19 2018 21:13:44 GMT-0800 (PST), stroop, 60
, , , , , , , , , , 0, -1, -1, 0, 2000, 7, 1, 0, 0.01, 0.01, , 2.20545816684, 26.262, 26.262, , 19.342105263157897, 35, 1, , 5, 90, 0, 3, 2, 2.14424060309, 23, How to read articles?,  Open a magazine., 4, 26.25800000000001, 26.258999999999986, 0, 6, 6, 6, 2000, 3, 2, 0.01, fmri_v220180219183556, 35, Mon Feb 19 2018 21:13:44 GMT-0800 (PST), stroop, 60, , , , , 0, -1, -1, 0, 2000, 7, 1, 0, 0.01, 0.01, , 2.20545816684, 26.262, 26.262, , 19.342105263157897, 35, 1, , 5, 90, 0, 3, 2, 2.14424060309, 23, How to read articles?,  Open a magazine., 4, 26.25800000000001, 26.258999999999986, 0, 6, 6, 6, 2000, 3, 2, 0.01, fmri_v220180219183556, 35, Mon Feb 19 2018 21:13:44 GMT-0800 (PST), stroop, 60
, , , , , , , , , , 0, -1, -1, 0, 2000, 8, 1, 0, 0.01, 0.01, , 1.62967726632, 26.268, 26.27000000000001, , 21, 38, 1, , 5, 90, 0, 3, 2, 2.57471769809, 1, How to consume medicine?,  Take pills. , 4, 26.26599999999999, 26.26599999999999, 0, 7, 7, 7, 2000, 3, 2, 0.01, fmri_v220180219183556, 35, Mon Feb 19 2018 21:13:44 GMT-0800 (PST), stroop, 60, , , , , 0, -1, -1, 0, 2000, 8, 1, 0, 0.01, 0.01, , 1.62967726632, 26.268, 26.27000000000001, , 21, 38, 1, , 5, 90, 0, 3, 2, 2.57471769809, 1, How to consume medicine?,  Take pills. , 4, 26.26599999999999, 26.26599999999999, 0, 7, 7, 7, 2000, 3, 2, 0.01, fmri_v220180219183556, 35, Mon Feb 19 2018 21:13:44 GMT-0800 (PST), stroop, 60
, , , , , , , , , , 0, -1, -1, 0, 2000, 9, 1, 0, 0.01, 0.01, , 2.57148303868, 26.270999999999987, 26.274, , 22.10526315789474, 40, 1, , 5, 90, 0, 3, 2, 1.00084714473, 56, Why write a poem?,  Express an idea., 2, 26.270999999999987, 26.270999999999987, 0, 8, 8, 8, 2000, 3, 2, 0.01, fmri_v220180219183556, 35, Mon Feb 19 2018 21:13:44 GMT-0800 (PST), stroop, 60, , , , , 0, -1, -1, 0, 2000, 9, 1, 0, 0.01, 0.01, , 2.57148303868, 26.270999999999987, 26.274, , 22.10526315789474, 40, 1, , 5, 90, 0, 3, 2, 1.00084714473, 56, Why write a poem?,  Express an idea., 2, 26.270999999999987, 26.270999999999987, 0, 8, 8, 8, 2000, 3, 2, 0.01, fmri_v220180219183556, 35, Mon Feb 19 2018 21:13:44 GMT-0800 (PST), stroop, 60
, , , , , , , , , , 0, -1, -1, 0, 2000, 10, 1, 0, 0.01, 0.01, , 1.75936134495, 26.27799999999999, 26.28200000000001, , 16.578947368421055, 30, 1, , 5, 90, 0, 3, 2, 1.84157328904, 44, Why make breakfast?,  Satisfy hunger., 2, 26.27600000000001, 26.276999999999987, 0, 9, 9, 9, 2000, 3, 2, 0.01, fmri_v220180219183556, 35, Mon Feb 19 2018 21:13:44 GMT-0800 (PST), stroop, 60, , , , , 0, -1, -1, 0, 2000, 10, 1, 0, 0.01, 0.01, , 1.75936134495, 26.27799999999999, 26.28200000000001, , 16.578947368421055, 30, 1, , 5, 90, 0, 3, 2, 1.84157328904, 44, Why make breakfast?,  Satisfy hunger., 2, 26.27600000000001, 26.276999999999987, 0, 9, 9, 9, 2000, 3, 2, 0.01, fmri_v220180219183556, 35, Mon Feb 19 2018 21:13:44 GMT-0800 (PST), stroop, 60
, , , , , , , , , , 0, -1, -1, 0, 2000, 11, 2, 0, 0.01, 0.01, , 2.04113406304, 26.284999999999997, 26.288999999999987, , 20.44736842105263, 37, 1, , 5, 90, 0, 3, 2, 1.9648727498, 39, Why provide food?,  Help a person., 3, 26.282999999999987, 26.283999999999992, 0, 10, 10, 10, 2000, 3, 2, 0.01, fmri_v220180219183556, 35, Mon Feb 19 2018 21:13:44 GMT-0800 (PST), stroop, 60, , , , , 0, -1, -1, 0, 2000, 11, 2, 0, 0.01, 0.01, , 2.04113406304, 26.284999999999997, 26.288999999999987, , 20.44736842105263, 37, 1, , 5, 90, 0, 3, 2, 1.9648727498, 39, Why provide food?,  Help a person., 3, 26.282999999999987, 26.283999999999992, 0, 10, 10, 10, 2000, 3, 2, 0.01, fmri_v220180219183556, 35, Mon Feb 19 2018 21:13:44 GMT-0800 (PST), stroop, 60
, , , , , , , , , , 0, -1, -1, 0, 2000, 12, 1, 0, 0.01, 0.01, , 1.02122478233, 26.290999999999997, 26.293000000000006, , 21.55263157894737, 39, 1, , 5, 90, 0, 3, 2, 3.37321818914, 3, Why attend a school?,  Get a degree., 3, 26.288999999999987, 26.289999999999992, 0, 11, 11, 11, 2000, 3, 2, 0.01, fmri_v220180219183556, 35, Mon Feb 19 2018 21:13:44 GMT-0800 (PST), stroop, 60, , , , , 0, -1, -1, 0, 2000, 12, 1, 0, 0.01, 0.01, , 1.02122478233, 26.290999999999997, 26.293000000000006, , 21.55263157894737, 39, 1, , 5, 90, 0, 3, 2, 3.37321818914, 3, Why attend a school?,  Get a degree., 3, 26.288999999999987, 26.289999999999992, 0, 11, 11, 11, 2000, 3, 2, 0.01, fmri_v220180219183556, 35, Mon Feb 19 2018 21:13:44 GMT-0800 (PST), stroop, 60
, , , , , , , , , , 0, -1, -1, 0, 2000, 13, 2, 0, 0.01, 0.01, , 1.36400350579, 26.295999999999992, 26.300999999999988, , 18.789473684210527, 34, 1, , 5, 90, 0, 3, 2, 1.40812059187, 33, How to plan ahead?,  Make a list., 5, 26.293000000000006, 26.29400000000001, 0, 12, 12, 12, 2000, 3, 2, 0.01, fmri_v220180219183556, 35, Mon Feb 19 2018 21:13:44 GMT-0800 (PST), stroop, 60, , , , , 0, -1, -1, 0, 2000, 13, 2, 0, 0.01, 0.01, , 1.36400350579, 26.295999999999992, 26.300999999999988, , 18.789473684210527, 34, 1, , 5, 90, 0, 3, 2, 1.40812059187, 33, How to plan ahead?,  Make a list., 5, 26.293000000000006, 26.29400000000001, 0, 12, 12, 12, 2000, 3, 2, 0.01, fmri_v220180219183556, 35, Mon Feb 19 2018 21:13:44 GMT-0800 (PST), stroop, 60
, , , , , , , , , , 0, -1, -1, 0, 2000, 14, 1, 0, 0.01, 0.01, , 4.08672749004, 26.304000000000002, 26.305000000000007, , 18.236842105263158, 33, 1, , 5, 90, 0, 3, 2, 3.52441574402, 26, How to contact a friend?,  Make a phone call., 5, 26.300999999999988, 26.301999999999992, 0, 13, 13, 13, 2000, 3, 2, 0.01, fmri_v220180219183556, 35, Mon Feb 19 2018 21:13:44 GMT-0800 (PST), stroop, 60, , , , , 0, -1, -1, 0, 2000, 14, 1, 0, 0.01, 0.01, , 4.08672749004, 26.304000000000002, 26.305000000000007, , 18.236842105263158, 33, 1, , 5, 90, 0, 3, 2, 3.52441574402, 26, How to contact a friend?,  Make a phone call., 5, 26.300999999999988, 26.301999999999992, 0, 13, 13, 13, 2000, 3, 2, 0.01, fmri_v220180219183556, 35, Mon Feb 19 2018 21:13:44 GMT-0800 (PST), stroop, 60
, , , , , , , , , , 0, -1, -1, 0, 2000, 15, 2, 0, 0.01, 0.01, , 1.14232208174, 26.310000000000002, 26.314999999999998, , 11.05263157894737, 20, 1, , 5, 90, 0, 3, 2, 1.37451064318, 37, Why show intelligence?,  Impress others., 3, 26.307999999999993, 26.308999999999997, 0, 14, 14, 14, 2000, 3, 2, 0.01, fmri_v220180219183556, 35, Mon Feb 19 2018 21:13:44 GMT-0800 (PST), stroop, 60, , , , , 0, -1, -1, 0, 2000, 15, 2, 0, 0.01, 0.01, , 1.14232208174, 26.310000000000002, 26.314999999999998, , 11.05263157894737, 20, 1, , 5, 90, 0, 3, 2, 1.37451064318, 37, Why show intelligence?,  Impress others., 3, 26.307999999999993, 26.308999999999997, 0, 14, 14, 14, 2000, 3, 2, 0.01, fmri_v220180219183556, 35, Mon Feb 19 2018 21:13:44 GMT-0800 (PST), stroop, 60
, , , , , , , , , , 0, -1, -1, 0, 2000, 16, 2, 0, 0.01, 0.01, , 1.3043613062, 26.31899999999999, 26.322000000000003, , 15.473684210526319, 28, 1, , 5, 90, 0, 3, 2, 1.60427418035, 48, Why save money?,  Get fit., 3, 26.317000000000007, 26.318000000000012, 0, 15, 15, 15, 2000, 3, 2, 0.01, fmri_v220180219183556, 35, Mon Feb 19 2018 21:13:44 GMT-0800 (PST), stroop, 60, , , , , 0, -1, -1, 0, 2000, 16, 2, 0, 0.01, 0.01, , 1.3043613062, 26.31899999999999, 26.322000000000003, , 15.473684210526319, 28, 1, , 5, 90, 0, 3, 2, 1.60427418035, 48, Why save money?,  Get fit., 3, 26.317000000000007, 26.318000000000012, 0, 15, 15, 15, 2000, 3, 2, 0.01, fmri_v220180219183556, 35, Mon Feb 19 2018 21:13:44 GMT-0800 (PST), stroop, 60
, , , , , , , , , , 0, -1, -1, 0, 2000, 17, 2, 0.0009999999999763531, 0.01, 0.01, , 1.71815166729, 26.32499999999999, 26.326999999999998, , 13.263157894736842, 24, 1, , 5, 90, 0, 3, 2, 4.58991311961, 13, How to watch television?,  Use a remote., 4, 26.323000000000008, 26.323000000000008, 0, 16, 16, 16, 2000, 3, 2, 0.01, fmri_v220180219183556, 35, Mon Feb 19 2018 21:13:44 GMT-0800 (PST), stroop, 60, , , , , 0, -1, -1, 0, 2000, 17, 2, 0.0009999999999763531, 0.01, 0.01, , 1.71815166729, 26.32499999999999, 26.326999999999998, , 13.263157894736842, 24, 1, , 5, 90, 0, 3, 2, 4.58991311961, 13, How to watch television?,  Use a remote., 4, 26.323000000000008, 26.323000000000008, 0, 16, 16, 16, 2000, 3, 2, 0.01, fmri_v220180219183556, 35, Mon Feb 19 2018 21:13:44 GMT-0800 (PST), stroop, 60
, , , , , , , , , , 0, -1, -1, 0, 2000, 18, 1, 0, 0.01, 0.01, , 2.42303767011, 26.329999999999984, 26.331999999999994, , 16.026315789473685, 29, 1, , 5, 90, 0, 3, 2, 1.05899403839, 14, How to prepare meals?,  Follow recipes., 4, 26.329000000000008, 26.329000000000008, 0, 17, 17, 17, 2000, 3, 2, 0.01, fmri_v220180219183556, 35, Mon Feb 19 2018 21:13:44 GMT-0800 (PST), stroop, 60, , , , , 0, -1, -1, 0, 2000, 18, 1, 0, 0.01, 0.01, , 2.42303767011, 26.329999999999984, 26.331999999999994, , 16.026315789473685, 29, 1, , 5, 90, 0, 3, 2, 1.05899403839, 14, How to prepare meals?,  Follow recipes., 4, 26.329000000000008, 26.329000000000008, 0, 17, 17, 17, 2000, 3, 2, 0.01, fmri_v220180219183556, 35, Mon Feb 19 2018 21:13:44 GMT-0800 (PST), stroop, 60
, , , , , , , , , , 0, -1, -1, 0, 2000, 19, 1, 0, 0.01, 0.01, , 1.52017905905, 26.334000000000003, 26.335999999999984, , 13.815789473684212, 25, 1, , 5, 90, 0, 3, 2, 1.16760884213, 58, Why wash ones hands?,  Kill germs., 1, 26.331999999999994, 26.334000000000003, 0, 18, 18, 18, 2000, 3, 2, 0.01, fmri_v220180219183556, 35, Mon Feb 19 2018 21:13:44 GMT-0800 (PST), stroop, 60, , , , , 0, -1, -1, 0, 2000, 19, 1, 0, 0.01, 0.01, , 1.52017905905, 26.334000000000003, 26.335999999999984, , 13.815789473684212, 25, 1, , 5, 90, 0, 3, 2, 1.16760884213, 58, Why wash ones hands?,  Kill germs., 1, 26.331999999999994, 26.334000000000003, 0, 18, 18, 18, 2000, 3, 2, 0.01, fmri_v220180219183556, 35, Mon Feb 19 2018 21:13:44 GMT-0800 (PST), stroop, 60
, , , , , , , , , , 0, -1, -1, 0, 2000, 20, 2, 0, 0.01, 0.01, , 2.83163970276, 26.340000000000003, 26.341999999999985, , 14.921052631578949, 27, 1, , 5, 90, 0, 3, 2, 1.31661398851, 43, Why point a camera?,  Take a picture., 1, 26.337999999999994, 26.339, 0, 19, 19, 19, 2000, 3, 2, 0.01, fmri_v220180219183556, 35, Mon Feb 19 2018 21:13:44 GMT-0800 (PST), stroop, 60, , , , , 0, -1, -1, 0, 2000, 20, 2, 0, 0.01, 0.01, , 2.83163970276, 26.340000000000003, 26.341999999999985, , 14.921052631578949, 27, 1, , 5, 90, 0, 3, 2, 1.31661398851, 43, Why point a camera?,  Take a picture., 1, 26.337999999999994, 26.339, 0, 19, 19, 19, 2000, 3, 2, 0.01, fmri_v220180219183556, 35, Mon Feb 19 2018 21:13:44 GMT-0800 (PST), stroop, 60
, , , , , , , , , , 0, -1, -1, 0, 2000, 21, 2, 0, 0.01, 0.01, , 1.06300804691, 26.34700000000001, 26.349999999999994, , 16.578947368421055, 30, 1, , 5, 90, 0, 3, 2, 2.37434714497, 35, Why write a song?,  Seek advice., 2, 26.34299999999999, 26.343999999999994, 0, 20, 20, 20, 2000, 3, 2, 0.01, fmri_v220180219183556, 35, Mon Feb 19 2018 21:13:44 GMT-0800 (PST), stroop, 60, , , , , 0, -1, -1, 0, 2000, 21, 2, 0, 0.01, 0.01, , 1.06300804691, 26.34700000000001, 26.349999999999994, , 16.578947368421055, 30, 1, , 5, 90, 0, 3, 2, 2.37434714497, 35, Why write a song?,  Seek advice., 2, 26.34299999999999, 26.343999999999994, 0, 20, 20, 20, 2000, 3, 2, 0.01, fmri_v220180219183556, 35, Mon Feb 19 2018 21:13:44 GMT-0800 (PST), stroop, 60
, , , , , , , , , , 0, -1, -1, 0, 2000, 22, 2, 0, 0.01, 0.01, , 3.99226220013, 26.353999999999985, 26.357, , 14.921052631578949, 27, 1, , 5, 90, 0, 3, 2, 1.75704638653, 8, Why take a picture?,  Keep a memory., 2, 26.351, 26.352000000000004, 0, 21, 21, 21, 2000, 3, 2, 0.01, fmri_v220180219183556, 35, Mon Feb 19 2018 21:13:44 GMT-0800 (PST), stroop, 60, , , , , 0, -1, -1, 0, 2000, 22, 2, 0, 0.01, 0.01, , 3.99226220013, 26.353999999999985, 26.357, , 14.921052631578949, 27, 1, , 5, 90, 0, 3, 2, 1.75704638653, 8, Why take a picture?,  Keep a memory., 2, 26.351, 26.352000000000004, 0, 21, 21, 21, 2000, 3, 2, 0.01, fmri_v220180219183556, 35, Mon Feb 19 2018 21:13:44 GMT-0800 (PST), stroop, 60
, , , , , , , , , , 0, -1, -1, 0, 2000, 23, 1, 0, 0.01, 0.01, , 1.07674246982, 26.359999999999985, 26.36500000000001, , 11.605263157894736, 21, 1, , 5, 90, 0, 3, 2, 1.00293769835, 5, How to get a degree?,  Attend a school., 6, 26.358000000000004, 26.35900000000001, 0, 22, 22, 22, 2000, 3, 2, 0.01, fmri_v220180219183556, 35, Mon Feb 19 2018 21:13:44 GMT-0800 (PST), stroop, 60, , , , , 0, -1, -1, 0, 2000, 23, 1, 0, 0.01, 0.01, , 1.07674246982, 26.359999999999985, 26.36500000000001, , 11.605263157894736, 21, 1, , 5, 90, 0, 3, 2, 1.00293769835, 5, How to get a degree?,  Attend a school., 6, 26.358000000000004, 26.35900000000001, 0, 22, 22, 22, 2000, 3, 2, 0.01, fmri_v220180219183556, 35, Mon Feb 19 2018 21:13:44 GMT-0800 (PST), stroop, 60
, , , , , , , , , , 0, -1, -1, 0, 2000, 24, 2, 0.001999999999981128, 0.01, 0.01, , 2.4769759573, 26.37899999999999, 26.383999999999986, , 13.815789473684212, 25, 1, , 5, 90, 0, 3, 2, 1.31147192592, 55, How to achieve success?,  Get a promotion., 6, 26.36699999999999, 26.367999999999995, 0, 23, 23, 23, 2000, 3, 2, 0.01, fmri_v220180219183556, 35, Mon Feb 19 2018 21:13:44 GMT-0800 (PST), stroop, 60, , , , , 0, -1, -1, 0, 2000, 24, 2, 0.001999999999981128, 0.01, 0.01, , 2.4769759573, 26.37899999999999, 26.383999999999986, , 13.815789473684212, 25, 1, , 5, 90, 0, 3, 2, 1.31147192592, 55, How to achieve success?,  Get a promotion., 6, 26.36699999999999, 26.367999999999995, 0, 23, 23, 23, 2000, 3, 2, 0.01, fmri_v220180219183556, 35, Mon Feb 19 2018 21:13:44 GMT-0800 (PST), stroop, 60
, , , , , , , , , , 0, -1, -1, 0, 2000, 25, 1, 0, 0.01, 0.01, , 1.46148056073, 26.417, 26.419999999999987, , 21, 38, 1, , 5, 90, 0, 3, 2, 1.18276444708, 32, How to give applause?,  Clap hands., 4, 26.383999999999986, 26.413999999999987, 0, 24, 24, 24, 2000, 3, 2, 0.01, fmri_v220180219183556, 35, Mon Feb 19 2018 21:13:44 GMT-0800 (PST), stroop, 60, , , , , 0, -1, -1, 0, 2000, 25, 1, 0, 0.01, 0.01, , 1.46148056073, 26.417, 26.419999999999987, , 21, 38, 1, , 5, 90, 0, 3, 2, 1.18276444708, 32, How to give applause?,  Clap hands., 4, 26.383999999999986, 26.413999999999987, 0, 24, 24, 24, 2000, 3, 2, 0.01, fmri_v220180219183556, 35, Mon Feb 19 2018 21:13:44 GMT-0800 (PST), stroop, 60
, , , , , , , , , , 0, -1, -1, 0, 2000, 26, 1, 0, 0.01, 0.01, , 1.27090891594, 26.438999999999993, 26.442000000000007, , 15.473684210526319, 28, 1, , 5, 90, 0, 3, 2, 1.76936393203, 0, How to mix a cocktail?,  Stir ingredients., 4, 26.421999999999997, 26.424000000000007, 0, 25, 25, 25, 2000, 3, 2, 0.01, fmri_v220180219183556, 35, Mon Feb 19 2018 21:13:44 GMT-0800 (PST), stroop, 60, , , , , 0, -1, -1, 0, 2000, 26, 1, 0, 0.01, 0.01, , 1.27090891594, 26.438999999999993, 26.442000000000007, , 15.473684210526319, 28, 1, , 5, 90, 0, 3, 2, 1.76936393203, 0, How to mix a cocktail?,  Stir ingredients., 4, 26.421999999999997, 26.424000000000007, 0, 25, 25, 25, 2000, 3, 2, 0.01, fmri_v220180219183556, 35, Mon Feb 19 2018 21:13:44 GMT-0800 (PST), stroop, 60
, , , , , , , , , , 0, -1, -1, 0, 2000, 27, 1, 0, 0.01, 0.01, , 2.67941640448, 26.45599999999999, 26.458, , 20.44736842105263, 37, 1, , 5, 90, 0, 3, 2, 2.38494806284, 59, How to get a promotion?,  Arrive on time., 5, 26.444999999999993, 26.453000000000003, 0, 26, 26, 26, 2000, 3, 2, 0.01, fmri_v220180219183556, 35, Mon Feb 19 2018 21:13:44 GMT-0800 (PST), stroop, 60, , , , , 0, -1, -1, 0, 2000, 27, 1, 0, 0.01, 0.01, , 2.67941640448, 26.45599999999999, 26.458, , 20.44736842105263, 37, 1, , 5, 90, 0, 3, 2, 2.38494806284, 59, How to get a promotion?,  Arrive on time., 5, 26.444999999999993, 26.453000000000003, 0, 26, 26, 26, 2000, 3, 2, 0.01, fmri_v220180219183556, 35, Mon Feb 19 2018 21:13:44 GMT-0800 (PST), stroop, 60
, , , , , , , , , , 0, -1, -1, 0, 2000, 28, 2, 0, 0.01, 0.01, , 1.93425866444, 26.46799999999999, 26.471000000000004, , 12.710526315789476, 23, 1, , 5, 90, 0, 3, 2, 1.71728918215, 21, How to show appreciation?,  Give applause., 5, 26.459000000000003, 26.460000000000008, 0, 27, 27, 27, 2000, 3, 2, 0.01, fmri_v220180219183556, 35, Mon Feb 19 2018 21:13:44 GMT-0800 (PST), stroop, 60, , , , , 0, -1, -1, 0, 2000, 28, 2, 0, 0.01, 0.01, , 1.93425866444, 26.46799999999999, 26.471000000000004, , 12.710526315789476, 23, 1, , 5, 90, 0, 3, 2, 1.71728918215, 21, How to show appreciation?,  Give applause., 5, 26.459000000000003, 26.460000000000008, 0, 27, 27, 27, 2000, 3, 2, 0.01, fmri_v220180219183556, 35, Mon Feb 19 2018 21:13:44 GMT-0800 (PST), stroop, 60
, , , , , , , , , , 0, -1, -1, 0, 2000, 29, 2, 0, 0.01, 0.01, , 2.28312125563, 26.477000000000004, 26.482, , 21.55263157894737, 39, 1, , 5, 90, 0, 3, 2, 1.34062282472, 57, Why drink wine?,  Consume alcohol., 2, 26.47200000000001, 26.472999999999985, 0, 28, 28, 28, 2000, 3, 2, 0.01, fmri_v220180219183556, 35, Mon Feb 19 2018 21:13:44 GMT-0800 (PST), stroop, 60, , , , , 0, -1, -1, 0, 2000, 29, 2, 0, 0.01, 0.01, , 2.28312125563, 26.477000000000004, 26.482, , 21.55263157894737, 39, 1, , 5, 90, 0, 3, 2, 1.34062282472, 57, Why drink wine?,  Consume alcohol., 2, 26.47200000000001, 26.472999999999985, 0, 28, 28, 28, 2000, 3, 2, 0.01, fmri_v220180219183556, 35, Mon Feb 19 2018 21:13:44 GMT-0800 (PST), stroop, 60
, , , , , , , , , , 0, -1, -1, 0, 2000, 30, 2, 0, 0.01, 0.01, , 1.83122624224, 26.495000000000005, 26.498999999999995, , 19.894736842105267, 36, 1, , 5, 90, 0, 3, 2, 3.44250042934, 4, Why dress formally?,  Get a promotion., 2, 26.484999999999985, 26.49199999999999, 0, 29, 29, 29, 2000, 3, 2, 0.01, fmri_v220180219183556, 35, Mon Feb 19 2018 21:13:44 GMT-0800 (PST), stroop, 60, , , , , 0, -1, -1, 0, 2000, 30, 2, 0, 0.01, 0.01, , 1.83122624224, 26.495000000000005, 26.498999999999995, , 19.894736842105267, 36, 1, , 5, 90, 0, 3, 2, 3.44250042934, 4, Why dress formally?,  Get a promotion., 2, 26.484999999999985, 26.49199999999999, 0, 29, 29, 29, 2000, 3, 2, 0.01, fmri_v220180219183556, 35, Mon Feb 19 2018 21:13:44 GMT-0800 (PST), stroop, 60
, , , , , , , , , , 0, -1, -1, 0, 2000, 31, 2, 0, 0.01, 0.01, , 3.89746050745, 26.50399999999999, 26.507000000000005, , 16.026315789473685, 29, 1, , 5, 90, 0, 3, 2, 2.00490348266, 42, Why use a remote?,  Watch television., 1, 26.5, 26.50200000000001, 0, 30, 30, 30, 2000, 3, 2, 0.01, fmri_v220180219183556, 35, Mon Feb 19 2018 21:13:44 GMT-0800 (PST), stroop, 60, , , , , 0, -1, -1, 0, 2000, 31, 2, 0, 0.01, 0.01, , 3.89746050745, 26.50399999999999, 26.507000000000005, , 16.026315789473685, 29, 1, , 5, 90, 0, 3, 2, 2.00490348266, 42, Why use a remote?,  Watch television., 1, 26.5, 26.50200000000001, 0, 30, 30, 30, 2000, 3, 2, 0.01, fmri_v220180219183556, 35, Mon Feb 19 2018 21:13:44 GMT-0800 (PST), stroop, 60
, , , , , , , , , , 0, -1, -1, 0, 2000, 32, 1, 0, 0.01, 0.01, , 1.49360397101, 26.50800000000001, 26.50999999999999, , 13.263157894736842, 24, 1, , 5, 90, 0, 3, 2, 1.33403075154, 25, Why lift a glass?,  Drink wine., 1, 26.507000000000005, 26.507000000000005, 0, 31, 31, 31, 2000, 3, 2, 0.01, fmri_v220180219183556, 35, Mon Feb 19 2018 21:13:44 GMT-0800 (PST), stroop, 60, , , , , 0, -1, -1, 0, 2000, 32, 1, 0, 0.01, 0.01, , 1.49360397101, 26.50800000000001, 26.50999999999999, , 13.263157894736842, 24, 1, , 5, 90, 0, 3, 2, 1.33403075154, 25, Why lift a glass?,  Drink wine., 1, 26.507000000000005, 26.507000000000005, 0, 31, 31, 31, 2000, 3, 2, 0.01, fmri_v220180219183556, 35, Mon Feb 19 2018 21:13:44 GMT-0800 (PST), stroop, 60
, , , , , , , , , , 0, -1, -1, 0, 2000, 33, 2, 0, 0.01, 0.01, , 1.03452682891, 26.51400000000001, 26.516999999999996, , 12.157894736842106, 22, 1, , 5, 90, 0, 3, 2, 3.49303799328, 22, How to feel well?,  Reduce pain., 6, 26.513000000000005, 26.513000000000005, 0, 32, 32, 32, 2000, 3, 2, 0.01, fmri_v220180219183556, 35, Mon Feb 19 2018 21:13:44 GMT-0800 (PST), stroop, 60, , , , , 0, -1, -1, 0, 2000, 33, 2, 0, 0.01, 0.01, , 1.03452682891, 26.51400000000001, 26.516999999999996, , 12.157894736842106, 22, 1, , 5, 90, 0, 3, 2, 3.49303799328, 22, How to feel well?,  Reduce pain., 6, 26.513000000000005, 26.513000000000005, 0, 32, 32, 32, 2000, 3, 2, 0.01, fmri_v220180219183556, 35, Mon Feb 19 2018 21:13:44 GMT-0800 (PST), stroop, 60
, , , , , , , , , , 0, -1, -1, 0, 2000, 34, 2, 0, 0.01, 0.01, , 1.31941412609, 26.52000000000001, 26.522999999999996, , 11.05263157894737, 20, 1, , 5, 90, 0, 3, 2, 1.71912598533, 50, How to avoid mistakes?,  Obey laws., 6, 26.518, 26.518, 0, 33, 33, 33, 2000, 3, 2, 0.01, fmri_v220180219183556, 35, Mon Feb 19 2018 21:13:44 GMT-0800 (PST), stroop, 60, , , , , 0, -1, -1, 0, 2000, 34, 2, 0, 0.01, 0.01, , 1.31941412609, 26.52000000000001, 26.522999999999996, , 11.05263157894737, 20, 1, , 5, 90, 0, 3, 2, 1.71912598533, 50, How to avoid mistakes?,  Obey laws., 6, 26.518, 26.518, 0, 33, 33, 33, 2000, 3, 2, 0.01, fmri_v220180219183556, 35, Mon Feb 19 2018 21:13:44 GMT-0800 (PST), stroop, 60
, , , , , , , , , , 0, -1, -1, 0, 2000, 35, 1, 0, 0.01, 0.01, , 1.83668230828, 26.526999999999987, 26.53200000000001, , 18.789473684210527, 34, 1, , 5, 90, 0, 3, 2, 1.55506967108, 41, Why contact a friend?,  Feel connected., 3, 26.525000000000006, 26.525000000000006, 0, 34, 34, 34, 2000, 3, 2, 0.01, fmri_v220180219183556, 35, Mon Feb 19 2018 21:13:44 GMT-0800 (PST), stroop, 60, , , , , 0, -1, -1, 0, 2000, 35, 1, 0, 0.01, 0.01, , 1.83668230828, 26.526999999999987, 26.53200000000001, , 18.789473684210527, 34, 1, , 5, 90, 0, 3, 2, 1.55506967108, 41, Why contact a friend?,  Feel connected., 3, 26.525000000000006, 26.525000000000006, 0, 34, 34, 34, 2000, 3, 2, 0.01, fmri_v220180219183556, 35, Mon Feb 19 2018 21:13:44 GMT-0800 (PST), stroop, 60
, , , , , , , , , , 0, -1, -1, 0, 2000, 36, 1, 0, 0.01, 0.01, , 2.21576462063, 26.53800000000001, 26.54400000000001, , 17.684210526315788, 32, 1, , 5, 90, 0, 3, 2, 1.11856704142, 15, Why share ideas?,  Show intellect., 3, 26.534999999999997, 26.537000000000006, 0, 35, 35, 35, 2000, 3, 2, 0.01, fmri_v220180219183556, 35, Mon Feb 19 2018 21:13:44 GMT-0800 (PST), stroop, 60, , , , , 0, -1, -1, 0, 2000, 36, 1, 0, 0.01, 0.01, , 2.21576462063, 26.53800000000001, 26.54400000000001, , 17.684210526315788, 32, 1, , 5, 90, 0, 3, 2, 1.11856704142, 15, Why share ideas?,  Show intellect., 3, 26.534999999999997, 26.537000000000006, 0, 35, 35, 35, 2000, 3, 2, 0.01, fmri_v220180219183556, 35, Mon Feb 19 2018 21:13:44 GMT-0800 (PST), stroop, 60
, , , , , , , , , , 0, -1, -1, 0, 2000, 37, 1, 0, 0.01, 0.01, , 1.40503050342, 26.55000000000001, 26.551999999999992, , 18.236842105263158, 33, 1, , 5, 90, 0, 3, 2, 1.32607331456, 10, Why enter a classroom?,  Attend a school., 2, 26.54400000000001, 26.548000000000002, 0, 36, 36, 36, 2000, 3, 2, 0.01, fmri_v220180219183556, 35, Mon Feb 19 2018 21:13:44 GMT-0800 (PST), stroop, 60, , , , , 0, -1, -1, 0, 2000, 37, 1, 0, 0.01, 0.01, , 1.40503050342, 26.55000000000001, 26.551999999999992, , 18.236842105263158, 33, 1, , 5, 90, 0, 3, 2, 1.32607331456, 10, Why enter a classroom?,  Attend a school., 2, 26.54400000000001, 26.548000000000002, 0, 36, 36, 36, 2000, 3, 2, 0.01, fmri_v220180219183556, 35, Mon Feb 19 2018 21:13:44 GMT-0800 (PST), stroop, 60
, , , , , , , , , , 0, -1, -1, 0, 2000, 38, 2, 0, 0.01, 0.01, , 2.30615047845, 26.55600000000001, 26.556999999999988, , 17.131578947368425, 31, 1, , 5, 90, 0, 3, 2, 2.6322924895, 46, Why go shopping?,  Make a purchase., 2, 26.552999999999997, 26.554000000000002, 0, 37, 37, 37, 2000, 3, 2, 0.01, fmri_v220180219183556, 35, Mon Feb 19 2018 21:13:44 GMT-0800 (PST), stroop, 60, , , , , 0, -1, -1, 0, 2000, 38, 2, 0, 0.01, 0.01, , 2.30615047845, 26.55600000000001, 26.556999999999988, , 17.131578947368425, 31, 1, , 5, 90, 0, 3, 2, 2.6322924895, 46, Why go shopping?,  Make a purchase., 2, 26.552999999999997, 26.554000000000002, 0, 37, 37, 37, 2000, 3, 2, 0.01, fmri_v220180219183556, 35, Mon Feb 19 2018 21:13:44 GMT-0800 (PST), stroop, 60
, , , , , , , , , , 0, -1, -1, 0, 2000, 39, 1, 0, 0.01, 0.01, , 1.51790568597, 26.560000000000002, 26.562999999999988, , 19.342105263157897, 35, 1, , 5, 90, 0, 3, 2, 1.33433757765, 27, How to make art?,  Paint a picture., 5, 26.557999999999993, 26.558999999999997, 0, 38, 38, 38, 2000, 3, 2, 0.01, fmri_v220180219183556, 35, Mon Feb 19 2018 21:13:44 GMT-0800 (PST), stroop, 60, , , , , 0, -1, -1, 0, 2000, 39, 1, 0, 0.01, 0.01, , 1.51790568597, 26.560000000000002, 26.562999999999988, , 19.342105263157897, 35, 1, , 5, 90, 0, 3, 2, 1.33433757765, 27, How to make art?,  Paint a picture., 5, 26.557999999999993, 26.558999999999997, 0, 38, 38, 38, 2000, 3, 2, 0.01, fmri_v220180219183556, 35, Mon Feb 19 2018 21:13:44 GMT-0800 (PST), stroop, 60
, , , , , , , , , , 0, -1, -1, 0, 2000, 40, 2, 0.0010000000000047748, 0.01, 0.01, , 1.02885648973, 26.568000000000012, 26.569999999999993, , 14.368421052631579, 26, 1, , 5, 90, 0, 3, 2, 1.88501868418, 54, How to make a donation?,  Mix a cocktail., 5, 26.563999999999993, 26.563999999999993, 0, 39, 39, 39, 2000, 3, 2, 0.01, fmri_v220180219183556, 35, Mon Feb 19 2018 21:13:44 GMT-0800 (PST), stroop, 60, , , , , 0, -1, -1, 0, 2000, 40, 2, 0.0010000000000047748, 0.01, 0.01, , 1.02885648973, 26.568000000000012, 26.569999999999993, , 14.368421052631579, 26, 1, , 5, 90, 0, 3, 2, 1.88501868418, 54, How to make a donation?,  Mix a cocktail., 5, 26.563999999999993, 26.563999999999993, 0, 39, 39, 39, 2000, 3, 2, 0.01, fmri_v220180219183556, 35, Mon Feb 19 2018 21:13:44 GMT-0800 (PST), stroop, 60
, , , , , , , , , , 0, -1, -1, 0, 2000, 41, 2, 0.0010000000000047748, 0.01, 0.01, , 2.46430929163, 26.575999999999993, 26.579999999999984, , 18.789473684210527, 34, 1, , 5, 90, 0, 3, 2, 2.44791322318, 52, Why show appreciation?,  Spread joy., 3, 26.570999999999998, 26.572000000000003, 0, 40, 40, 40, 2000, 3, 2, 0.01, fmri_v220180219183556, 35, Mon Feb 19 2018 21:13:44 GMT-0800 (PST), stroop, 60, , , , , 0, -1, -1, 0, 2000, 41, 2, 0.0010000000000047748, 0.01, 0.01, , 2.46430929163, 26.575999999999993, 26.579999999999984, , 18.789473684210527, 34, 1, , 5, 90, 0, 3, 2, 2.44791322318, 52, Why show appreciation?,  Spread joy., 3, 26.570999999999998, 26.572000000000003, 0, 40, 40, 40, 2000, 3, 2, 0.01, fmri_v220180219183556, 35, Mon Feb 19 2018 21:13:44 GMT-0800 (PST), stroop, 60
, , , , , , , , , , 0, -1, -1, 0, 2000, 42, 1, 0, 0.01, 0.01, , 3.02182502682, 26.585000000000008, 26.58699999999999, , 21, 38, 1, , 5, 90, 0, 3, 2, 3.26644291231, 36, Why get a promotion?,  Achieve success., 3, 26.581999999999994, 26.583, 0, 41, 41, 41, 2000, 3, 2, 0.01, fmri_v220180219183556, 35, Mon Feb 19 2018 21:13:44 GMT-0800 (PST), stroop, 60, , , , , 0, -1, -1, 0, 2000, 42, 1, 0, 0.01, 0.01, , 3.02182502682, 26.585000000000008, 26.58699999999999, , 21, 38, 1, , 5, 90, 0, 3, 2, 3.26644291231, 36, Why get a promotion?,  Achieve success., 3, 26.581999999999994, 26.583, 0, 41, 41, 41, 2000, 3, 2, 0.01, fmri_v220180219183556, 35, Mon Feb 19 2018 21:13:44 GMT-0800 (PST), stroop, 60
, , , , , , , , , , 0, -1, -1, 0, 2000, 43, 2, 0, 0.01, 0.01, , 2.57633816902, 26.590000000000003, 26.591000000000008, , 11.605263157894736, 21, 1, , 5, 90, 0, 3, 2, 1.62521108993, 29, How to give a lecture?,  Brush ones hair., 4, 26.587999999999994, 26.589, 0, 42, 42, 42, 2000, 3, 2, 0.01, fmri_v220180219183556, 35, Mon Feb 19 2018 21:13:44 GMT-0800 (PST), stroop, 60, , , , , 0, -1, -1, 0, 2000, 43, 2, 0, 0.01, 0.01, , 2.57633816902, 26.590000000000003, 26.591000000000008, , 11.605263157894736, 21, 1, , 5, 90, 0, 3, 2, 1.62521108993, 29, How to give a lecture?,  Brush ones hair., 4, 26.587999999999994, 26.589, 0, 42, 42, 42, 2000, 3, 2, 0.01, fmri_v220180219183556, 35, Mon Feb 19 2018 21:13:44 GMT-0800 (PST), stroop, 60
, , , , , , , , , , 0, -1, -1, 0, 2000, 44, 1, 0.0010000000000047748, 0.01, 0.01, , 1.10502729899, 26.595, 26.602000000000004, , 11.05263157894737, 20, 1, , 5, 90, 0, 3, 2, 2.15435226629, 11, How to make breakfast?,  Crack eggs., 4, 26.591999999999985, 26.59299999999999, 0, 43, 43, 43, 2000, 3, 2, 0.01, fmri_v220180219183556, 35, Mon Feb 19 2018 21:13:44 GMT-0800 (PST), stroop, 60, , , , , 0, -1, -1, 0, 2000, 44, 1, 0.0010000000000047748, 0.01, 0.01, , 1.10502729899, 26.595, 26.602000000000004, , 11.05263157894737, 20, 1, , 5, 90, 0, 3, 2, 2.15435226629, 11, How to make breakfast?,  Crack eggs., 4, 26.591999999999985, 26.59299999999999, 0, 43, 43, 43, 2000, 3, 2, 0.01, fmri_v220180219183556, 35, Mon Feb 19 2018 21:13:44 GMT-0800 (PST), stroop, 60
, , , , , , , , , , 0, -1, -1, 0, 2000, 45, 1, 0, 0.01, 0.01, , 2.00641499219, 26.605999999999995, 26.609999999999985, , 19.894736842105267, 36, 1, , 5, 90, 0, 3, 2, 1.51696832494, 18, How to impress others?,  Show intelligence., 6, 26.60300000000001, 26.60300000000001, 0, 44, 44, 44, 2000, 3, 2, 0.01, fmri_v220180219183556, 35, Mon Feb 19 2018 21:13:44 GMT-0800 (PST), stroop, 60, , , , , 0, -1, -1, 0, 2000, 45, 1, 0, 0.01, 0.01, , 2.00641499219, 26.605999999999995, 26.609999999999985, , 19.894736842105267, 36, 1, , 5, 90, 0, 3, 2, 1.51696832494, 18, How to impress others?,  Show intelligence., 6, 26.60300000000001, 26.60300000000001, 0, 44, 44, 44, 2000, 3, 2, 0.01, fmri_v220180219183556, 35, Mon Feb 19 2018 21:13:44 GMT-0800 (PST), stroop, 60
, , , , , , , , , , 0, -1, -1, 0, 2000, 46, 2, 0, 0.01, 0.01, , 1.76089702934, 26.613, 26.61500000000001, , 13.815789473684212, 25, 1, , 5, 90, 0, 3, 2, 1.38654977519, 51, How to avoid boredom?,  Entertain oneself., 6, 26.609999999999985, 26.61099999999999, 0, 45, 45, 45, 2000, 3, 2, 0.01, fmri_v220180219183556, 35, Mon Feb 19 2018 21:13:44 GMT-0800 (PST), stroop, 60, , , , , 0, -1, -1, 0, 2000, 46, 2, 0, 0.01, 0.01, , 1.76089702934, 26.613, 26.61500000000001, , 13.815789473684212, 25, 1, , 5, 90, 0, 3, 2, 1.38654977519, 51, How to avoid boredom?,  Entertain oneself., 6, 26.609999999999985, 26.61099999999999, 0, 45, 45, 45, 2000, 3, 2, 0.01, fmri_v220180219183556, 35, Mon Feb 19 2018 21:13:44 GMT-0800 (PST), stroop, 60
, , , , , , , , , , 0, -1, -1, 0, 2000, 47, 2, 0, 0.01, 0.01, , 2.12018846992, 26.62100000000001, 26.625, , 21.55263157894737, 39, 1, , 5, 90, 0, 3, 2, 3.03814082991, 7, Why drink coffee?,  Consume caffeine., 1, 26.61699999999999, 26.61699999999999, 0, 46, 46, 46, 2000, 3, 2, 0.01, fmri_v220180219183556, 35, Mon Feb 19 2018 21:13:44 GMT-0800 (PST), stroop, 60, , , , , 0, -1, -1, 0, 2000, 47, 2, 0, 0.01, 0.01, , 2.12018846992, 26.62100000000001, 26.625, , 21.55263157894737, 39, 1, , 5, 90, 0, 3, 2, 3.03814082991, 7, Why drink coffee?,  Consume caffeine., 1, 26.61699999999999, 26.61699999999999, 0, 46, 46, 46, 2000, 3, 2, 0.01, fmri_v220180219183556, 35, Mon Feb 19 2018 21:13:44 GMT-0800 (PST), stroop, 60
, , , , , , , , , , 0, -1, -1, 0, 2000, 48, 1, 0, 0.01, 0.01, , 1.50990000631, 26.62700000000001, 26.629999999999995, , 15.473684210526319, 28, 1, , 5, 90, 0, 3, 2, 1.96856855141, 20, Why use a comb?,  Write a song., 1, 26.625, 26.626000000000005, 0, 47, 47, 47, 2000, 3, 2, 0.01, fmri_v220180219183556, 35, Mon Feb 19 2018 21:13:44 GMT-0800 (PST), stroop, 60, , , , , 0, -1, -1, 0, 2000, 48, 1, 0, 0.01, 0.01, , 1.50990000631, 26.62700000000001, 26.629999999999995, , 15.473684210526319, 28, 1, , 5, 90, 0, 3, 2, 1.96856855141, 20, Why use a comb?,  Write a song., 1, 26.625, 26.626000000000005, 0, 47, 47, 47, 2000, 3, 2, 0.01, fmri_v220180219183556, 35, Mon Feb 19 2018 21:13:44 GMT-0800 (PST), stroop, 60
, , , , , , , , , , 0, -1, -1, 0, 2000, 49, 1, 0, 0.01, 0.01, , 2.87532275163, 26.638000000000005, 26.64099999999999, , 12.710526315789476, 23, 1, , 5, 90, 0, 3, 2, 3.31145416616, 24, Why open a bottle?,  Consume medicine., 1, 26.63499999999999, 26.63499999999999, 0, 48, 48, 48, 2000, 3, 2, 0.01, fmri_v220180219183556, 35, Mon Feb 19 2018 21:13:44 GMT-0800 (PST), stroop, 60, , , , , 0, -1, -1, 0, 2000, 49, 1, 0, 0.01, 0.01, , 2.87532275163, 26.638000000000005, 26.64099999999999, , 12.710526315789476, 23, 1, , 5, 90, 0, 3, 2, 3.31145416616, 24, Why open a bottle?,  Consume medicine., 1, 26.63499999999999, 26.63499999999999, 0, 48, 48, 48, 2000, 3, 2, 0.01, fmri_v220180219183556, 35, Mon Feb 19 2018 21:13:44 GMT-0800 (PST), stroop, 60
, , , , , , , , , , 0, -1, -1, 0, 2000, 50, 2, 0, 0.01, 0.01, , 1.6972711281, 26.641999999999996, 26.645999999999987, , 20.44736842105263, 37, 1, , 5, 90, 0, 3, 2, 1.03993107586, 6, Why throw away trash?,  Make a list., 1, 26.64099999999999, 26.641999999999996, 0, 49, 49, 49, 2000, 3, 2, 0.01, fmri_v220180219183556, 35, Mon Feb 19 2018 21:13:44 GMT-0800 (PST), stroop, 60, , , , , 0, -1, -1, 0, 2000, 50, 2, 0, 0.01, 0.01, , 1.6972711281, 26.641999999999996, 26.645999999999987, , 20.44736842105263, 37, 1, , 5, 90, 0, 3, 2, 1.03993107586, 6, Why throw away trash?,  Make a list., 1, 26.64099999999999, 26.641999999999996, 0, 49, 49, 49, 2000, 3, 2, 0.01, fmri_v220180219183556, 35, Mon Feb 19 2018 21:13:44 GMT-0800 (PST), stroop, 60
, , , , , , , , , , 0, -1, -1, 0, 2000, 51, 2, 0, 0.01, 0.01, , 2.56832384899, 26.649, 26.651999999999987, , 17.131578947368425, 31, 1, , 5, 90, 0, 3, 2, 1.08490027942, 40, How to support a cause?,  Give to charity., 6, 26.64699999999999, 26.64699999999999, 0, 50, 50, 50, 2000, 3, 2, 0.01, fmri_v220180219183556, 35, Mon Feb 19 2018 21:13:44 GMT-0800 (PST), stroop, 60, , , , , 0, -1, -1, 0, 2000, 51, 2, 0, 0.01, 0.01, , 2.56832384899, 26.649, 26.651999999999987, , 17.131578947368425, 31, 1, , 5, 90, 0, 3, 2, 1.08490027942, 40, How to support a cause?,  Give to charity., 6, 26.64699999999999, 26.64699999999999, 0, 50, 50, 50, 2000, 3, 2, 0.01, fmri_v220180219183556, 35, Mon Feb 19 2018 21:13:44 GMT-0800 (PST), stroop, 60
, , , , , , , , , , 0, -1, -1, 0, 2000, 52, 1, 0, 0.01, 0.01, , 2.09727129433, 26.657999999999987, 26.662000000000006, , 16.578947368421055, 30, 1, , 5, 90, 0, 3, 2, 1.09230889989, 31, How to improve oneself?,  Gain knowledge., 6, 26.65299999999999, 26.653999999999996, 0, 51, 51, 51, 2000, 3, 2, 0.01, fmri_v220180219183556, 35, Mon Feb 19 2018 21:13:44 GMT-0800 (PST), stroop, 60, , , , , 0, -1, -1, 0, 2000, 52, 1, 0, 0.01, 0.01, , 2.09727129433, 26.657999999999987, 26.662000000000006, , 16.578947368421055, 30, 1, , 5, 90, 0, 3, 2, 1.09230889989, 31, How to improve oneself?,  Gain knowledge., 6, 26.65299999999999, 26.653999999999996, 0, 51, 51, 51, 2000, 3, 2, 0.01, fmri_v220180219183556, 35, Mon Feb 19 2018 21:13:44 GMT-0800 (PST), stroop, 60
, , , , , , , , , , 0, -1, -1, 0, 2000, 53, 1, 0, 0.01, 0.01, , 2.66764677175, 26.663999999999987, 26.665999999999997, , 22.10526315789474, 40, 1, , 5, 90, 0, 3, 2, 1.01093462164, 45, Why lift weights?,  Build muscles., 2, 26.66300000000001, 26.66300000000001, 0, 52, 52, 52, 2000, 3, 2, 0.01, fmri_v220180219183556, 35, Mon Feb 19 2018 21:13:44 GMT-0800 (PST), stroop, 60, , , , , 0, -1, -1, 0, 2000, 53, 1, 0, 0.01, 0.01, , 2.66764677175, 26.663999999999987, 26.665999999999997, , 22.10526315789474, 40, 1, , 5, 90, 0, 3, 2, 1.01093462164, 45, Why lift weights?,  Build muscles., 2, 26.66300000000001, 26.66300000000001, 0, 52, 52, 52, 2000, 3, 2, 0.01, fmri_v220180219183556, 35, Mon Feb 19 2018 21:13:44 GMT-0800 (PST), stroop, 60
, , , , , , , , , , 0, -1, -1, 0, 2000, 54, 2, 0, 0.01, 0.01, , 1.96777372444, 26.668000000000006, 26.671999999999997, , 17.684210526315788, 32, 1, , 5, 90, 0, 3, 2, 3.42495685893, 17, Why consume medicine?,  Reduce pain., 2, 26.667, 26.667, 0, 53, 53, 53, 2000, 3, 2, 0.01, fmri_v220180219183556, 35, Mon Feb 19 2018 21:13:44 GMT-0800 (PST), stroop, 60, , , , , 0, -1, -1, 0, 2000, 54, 2, 0, 0.01, 0.01, , 1.96777372444, 26.668000000000006, 26.671999999999997, , 17.684210526315788, 32, 1, , 5, 90, 0, 3, 2, 3.42495685893, 17, Why consume medicine?,  Reduce pain., 2, 26.667, 26.667, 0, 53, 53, 53, 2000, 3, 2, 0.01, fmri_v220180219183556, 35, Mon Feb 19 2018 21:13:44 GMT-0800 (PST), stroop, 60
, , , , , , , , , , 0, -1, -1, 0, 2000, 55, 1, 0.0010000000000047748, 0.01, 0.01, , 2.03558173585, 26.67500000000001, 26.675999999999988, , 18.236842105263158, 33, 1, , 5, 90, 0, 3, 2, 1.32242418964, 30, How to write a poem?,  Grab a pencil., 4, 26.671999999999997, 26.673000000000002, 0, 54, 54, 54, 2000, 3, 2, 0.01, fmri_v220180219183556, 35, Mon Feb 19 2018 21:13:44 GMT-0800 (PST), stroop, 60, , , , , 0, -1, -1, 0, 2000, 55, 1, 0.0010000000000047748, 0.01, 0.01, , 2.03558173585, 26.67500000000001, 26.675999999999988, , 18.236842105263158, 33, 1, , 5, 90, 0, 3, 2, 1.32242418964, 30, How to write a poem?,  Grab a pencil., 4, 26.671999999999997, 26.673000000000002, 0, 54, 54, 54, 2000, 3, 2, 0.01, fmri_v220180219183556, 35, Mon Feb 19 2018 21:13:44 GMT-0800 (PST), stroop, 60
, , , , , , , , , , 0, -1, -1, 0, 2000, 56, 2, 0, 0.01, 0.01, , 1.05385454932, 26.682999999999993, 26.685000000000002, , 13.263157894736842, 24, 1, , 5, 90, 0, 3, 2, 1.88850313679, 19, How to dress formally?,  Wear ties. , 4, 26.676999999999992, 26.679000000000002, 0, 55, 55, 55, 2000, 3, 2, 0.01, fmri_v220180219183556, 35, Mon Feb 19 2018 21:13:44 GMT-0800 (PST), stroop, 60, , , , , 0, -1, -1, 0, 2000, 56, 2, 0, 0.01, 0.01, , 1.05385454932, 26.682999999999993, 26.685000000000002, , 13.263157894736842, 24, 1, , 5, 90, 0, 3, 2, 1.88850313679, 19, How to dress formally?,  Wear ties. , 4, 26.676999999999992, 26.679000000000002, 0, 55, 55, 55, 2000, 3, 2, 0.01, fmri_v220180219183556, 35, Mon Feb 19 2018 21:13:44 GMT-0800 (PST), stroop, 60
, , , , , , , , , , 0, -1, -1, 0, 2000, 57, 2, 0, 0.01, 0.01, , 2.64884197099, 26.687000000000012, 26.691000000000003, , 12.157894736842106, 22, 1, , 5, 90, 0, 3, 2, 2.11175044922, 53, How to write an email?,  Open a browser., 5, 26.685000000000002, 26.686000000000007, 0, 56, 56, 56, 2000, 3, 2, 0.01, fmri_v220180219183556, 35, Mon Feb 19 2018 21:13:44 GMT-0800 (PST), stroop, 60, , , , , 0, -1, -1, 0, 2000, 57, 2, 0, 0.01, 0.01, , 2.64884197099, 26.687000000000012, 26.691000000000003, , 12.157894736842106, 22, 1, , 5, 90, 0, 3, 2, 2.11175044922, 53, How to write an email?,  Open a browser., 5, 26.685000000000002, 26.686000000000007, 0, 56, 56, 56, 2000, 3, 2, 0.01, fmri_v220180219183556, 35, Mon Feb 19 2018 21:13:44 GMT-0800 (PST), stroop, 60
, , , , , , , , , , 0, -1, -1, 0, 2000, 58, 2, 0, 0.01, 0.01, , 1.83397669387, 26.700999999999993, 26.701999999999998, , 16.026315789473685, 29, 1, , 5, 90, 0, 3, 2, 1.62619947478, 47, How to express doubt?,  Use scissors., 5, 26.695999999999998, 26.699000000000012, 0, 57, 57, 57, 2000, 3, 2, 0.01, fmri_v220180219183556, 35, Mon Feb 19 2018 21:13:44 GMT-0800 (PST), stroop, 60, , , , , 0, -1, -1, 0, 2000, 58, 2, 0, 0.01, 0.01, , 1.83397669387, 26.700999999999993, 26.701999999999998, , 16.026315789473685, 29, 1, , 5, 90, 0, 3, 2, 1.62619947478, 47, How to express doubt?,  Use scissors., 5, 26.695999999999998, 26.699000000000012, 0, 57, 57, 57, 2000, 3, 2, 0.01, fmri_v220180219183556, 35, Mon Feb 19 2018 21:13:44 GMT-0800 (PST), stroop, 60
, , , , , , , , , , 0, -1, -1, 0, 2000, 59, 1, 0, 0.01, 0.01, , 1.71751495649, 26.70599999999999, 26.706999999999994, , 19.342105263157897, 35, 1, , 5, 90, 0, 3, 2, 3.48242402257, 12, Why satisfy hunger?,  Show an ability., 3, 26.703000000000003, 26.704000000000008, 0, 58, 58, 58, 2000, 3, 2, 0.01, fmri_v220180219183556, 35, Mon Feb 19 2018 21:13:44 GMT-0800 (PST), stroop, 60, , , , , 0, -1, -1, 0, 2000, 59, 1, 0, 0.01, 0.01, , 1.71751495649, 26.70599999999999, 26.706999999999994, , 19.342105263157897, 35, 1, , 5, 90, 0, 3, 2, 3.48242402257, 12, Why satisfy hunger?,  Show an ability., 3, 26.703000000000003, 26.704000000000008, 0, 58, 58, 58, 2000, 3, 2, 0.01, fmri_v220180219183556, 35, Mon Feb 19 2018 21:13:44 GMT-0800 (PST), stroop, 60
, , , , , , , , , , 0, -1, -1, 0, 2000, 60, 1, 0, 0.01, 0.01, , 1.86257458736, 26.712999999999994, 26.714, , 14.368421052631579, 26, 1, , 5, 90, 0, 3, 2, 2.70319678927, 49, Why keep a memory?,  Feel nostalgia., 3, 26.708, 26.710000000000008, 0, 59, 59, 59, 2000, 3, 2, 0.01, fmri_v220180219183556, 35, Mon Feb 19 2018 21:13:44 GMT-0800 (PST), stroop, 60, , , , , 0, -1, -1, 0, 2000, 60, 1, 0, 0.01, 0.01, , 1.86257458736, 26.712999999999994, 26.714, , 14.368421052631579, 26, 1, , 5, 90, 0, 3, 2, 2.70319678927, 49, Why keep a memory?,  Feel nostalgia., 3, 26.708, 26.710000000000008, 0, 59, 59, 59, 2000, 3, 2, 0.01, fmri_v220180219183556, 35, Mon Feb 19 2018 21:13:44 GMT-0800 (PST), stroop, 60
