resp_fMRI.keys, resp_fMRI.rt, construal_resp.keys, construal_resp.rt, resp_trial.keys, resp_trial.rt, instructionLoop.thisRepN, instructionLoop.thisTrialN, instructionLoop.thisN, instructionLoop.thisIndex, blocks.thisRepN, blocks.thisTrialN, blocks.thisN, blocks.thisIndex, Subject, Trial, SSonLorR, RT, startingK, endingK, TrialStart, ITI, choiceUp, choiceMade, TrialOver, SSamount, LLamount, Condition, Choice, SSdelay, LLdelay, salienceCondition, day, runid, TaskInterval, RewardTrialRanked, Construal_QuestionText, Construal_AnswerText, Construal_Condition, construal_trialUp, construal_trialComplete, trials_set1.thisRepN, trials_set1.thisTrialN, trials_set1.thisN, trials_set1.thisIndex, participant, session, run, k_val, designDir, total_time_limit, date, expName, frameRate, finish_screen_end_response.keys, finish_screen_end_response.rt, instructionLoop.thisRepN, instructionLoop.thisTrialN, instructionLoop.thisN, instructionLoop.thisIndex, blocks.thisRepN, blocks.thisTrialN, blocks.thisN, blocks.thisIndex, Subject, Trial, SSonLorR, RT, startingK, endingK, TrialStart, ITI, choiceUp, choiceMade, TrialOver, SSamount, LLamount, Condition, Choice, SSdelay, LLdelay, salienceCondition, day, runid, TaskInterval, RewardTrialRanked, Construal_QuestionText, Construal_AnswerText, Construal_Condition, construal_trialUp, construal_trialComplete, trials_set1.thisRepN, trials_set1.thisTrialN, trials_set1.thisN, trials_set1.thisIndex, participant, session, run, k_val, designDir, total_time_limit, date, expName, frameRate
5, 5.730000000000004, , , , , , , , , 0, -1, -1, 0, 2003, 1, 1, 6.002999999999986, 0.01, 0.01, , 1.86266871849, 18.292, 24.293999999999983, , 25, 30, 1, , 3, 23.599999999999998, 1, 2, 2, 1.54364369935, 25, Why click a mouse?,  Open a browser., 1, 12.407999999999987, 16.424000000000007, 0, 0, 0, 0, 2003, 2, 2, 0.01, fmri_v320180221225154, 60, Thu Feb 22 2018 00:40:21 GMT-0800 (PST), stroop, 60, , , , , , , 0, -1, -1, 0, 2003, 1, 1, 6.002999999999986, 0.01, 0.01, , 1.86266871849, 18.292, 24.293999999999983, , 25, 30, 1, , 3, 23.599999999999998, 1, 2, 2, 1.54364369935, 25, Why click a mouse?,  Open a browser., 1, 12.407999999999987, 16.424000000000007, 0, 0, 0, 0, 2003, 2, 2, 0.01, fmri_v320180221225154, 60, Thu Feb 22 2018 00:40:21 GMT-0800 (PST), stroop, 60
, , , , , , , , , , 0, -1, -1, 0, 2003, 2, 2, 6.0020000000000095, 0.01, 0.01, , 1.55305110583, 31.433999999999997, 37.43799999999999, , 25, 30, 1, , 1, 21.199999999999996, 1, 2, 2, 1.87700965649, 14, Why take aspirin?,  Serve alcohol., 1, 25.86099999999999, 29.863, 0, 1, 1, 1, 2003, 2, 2, 0.01, fmri_v320180221225154, 60, Thu Feb 22 2018 00:40:21 GMT-0800 (PST), stroop, 60, , , , , , , 0, -1, -1, 0, 2003, 2, 2, 6.0020000000000095, 0.01, 0.01, , 1.55305110583, 31.433999999999997, 37.43799999999999, , 25, 30, 1, , 1, 21.199999999999996, 1, 2, 2, 1.87700965649, 14, Why take aspirin?,  Serve alcohol., 1, 25.86099999999999, 29.863, 0, 1, 1, 1, 2003, 2, 2, 0.01, fmri_v320180221225154, 60, Thu Feb 22 2018 00:40:21 GMT-0800 (PST), stroop, 60
, , , , , , , , , , 0, -1, -1, 0, 2003, 3, 1, 6.150000000000006, 0.01, 0.01, , 2.1463434118, 45.754999999999995, 51.905, , 25, 30, 1, , 2, 22.40000000000002, 1, 2, 2, 3.04786609103, 55, Why watch television?,  Show competence., 2, 39.602000000000004, 43.60299999999998, 0, 2, 2, 2, 2003, 2, 2, 0.01, fmri_v320180221225154, 60, Thu Feb 22 2018 00:40:21 GMT-0800 (PST), stroop, 60, , , , , , , 0, -1, -1, 0, 2003, 3, 1, 6.150000000000006, 0.01, 0.01, , 2.1463434118, 45.754999999999995, 51.905, , 25, 30, 1, , 2, 22.40000000000002, 1, 2, 2, 3.04786609103, 55, Why watch television?,  Show competence., 2, 39.602000000000004, 43.60299999999998, 0, 2, 2, 2, 2003, 2, 2, 0.01, fmri_v320180221225154, 60, Thu Feb 22 2018 00:40:21 GMT-0800 (PST), stroop, 60
, , , , , , , , , , 0, -1, -1, 0, 2003, 4, 1, 0, 0.01, 0.01, , 1.47860942156, 51.90799999999999, 51.90899999999999, , 25, 30, 1, , 8, 29.600000000000005, 1, 2, 2, 2.34225015835, 4, Why enter a classroom?,  Attend a school., 2, 51.90699999999998, 51.90699999999998, 0, 3, 3, 3, 2003, 2, 2, 0.01, fmri_v320180221225154, 60, Thu Feb 22 2018 00:40:21 GMT-0800 (PST), stroop, 60, , , , , , , 0, -1, -1, 0, 2003, 4, 1, 0, 0.01, 0.01, , 1.47860942156, 51.90799999999999, 51.90899999999999, , 25, 30, 1, , 8, 29.600000000000005, 1, 2, 2, 2.34225015835, 4, Why enter a classroom?,  Attend a school., 2, 51.90699999999998, 51.90699999999998, 0, 3, 3, 3, 2003, 2, 2, 0.01, fmri_v320180221225154, 60, Thu Feb 22 2018 00:40:21 GMT-0800 (PST), stroop, 60
, , , , , , , , , , 0, -1, -1, 0, 2003, 5, 1, 0, 0.01, 0.01, , 1.51708613203, 51.91299999999998, 51.91399999999999, , 25, 30, 1, , 7, 28.400000000000023, 1, 2, 2, 1.47723030824, 33, How to get a degree?,  Attend a school., 6, 51.911, 51.912000000000006, 0, 4, 4, 4, 2003, 2, 2, 0.01, fmri_v320180221225154, 60, Thu Feb 22 2018 00:40:21 GMT-0800 (PST), stroop, 60, , , , , , , 0, -1, -1, 0, 2003, 5, 1, 0, 0.01, 0.01, , 1.51708613203, 51.91299999999998, 51.91399999999999, , 25, 30, 1, , 7, 28.400000000000023, 1, 2, 2, 1.47723030824, 33, How to get a degree?,  Attend a school., 6, 51.911, 51.912000000000006, 0, 4, 4, 4, 2003, 2, 2, 0.01, fmri_v320180221225154, 60, Thu Feb 22 2018 00:40:21 GMT-0800 (PST), stroop, 60
, , , , , , , , , , 0, -1, -1, 0, 2003, 6, 1, 0, 0.01, 0.01, , 3.56763624467, 51.917, 51.91899999999998, , 25, 30, 1, , 9, 30.800000000000004, 1, 2, 2, 1.04852491087, 53, How to spread joy?,  Get a job., 6, 51.91499999999999, 51.916, 0, 5, 5, 5, 2003, 2, 2, 0.01, fmri_v320180221225154, 60, Thu Feb 22 2018 00:40:21 GMT-0800 (PST), stroop, 60, , , , , , , 0, -1, -1, 0, 2003, 6, 1, 0, 0.01, 0.01, , 3.56763624467, 51.917, 51.91899999999998, , 25, 30, 1, , 9, 30.800000000000004, 1, 2, 2, 1.04852491087, 53, How to spread joy?,  Get a job., 6, 51.91499999999999, 51.916, 0, 5, 5, 5, 2003, 2, 2, 0.01, fmri_v320180221225154, 60, Thu Feb 22 2018 00:40:21 GMT-0800 (PST), stroop, 60
, , , , , , , , , , 0, -1, -1, 0, 2003, 7, 2, 0, 0.01, 0.01, , 1.62621009044, 51.923, 51.92400000000001, , 25, 30, 1, , 5, 26, 1, 2, 2, 2.20554590384, 0, How to express doubt?,  Use scissors., 5, 51.91999999999999, 51.91999999999999, 0, 6, 6, 6, 2003, 2, 2, 0.01, fmri_v320180221225154, 60, Thu Feb 22 2018 00:40:21 GMT-0800 (PST), stroop, 60, , , , , , , 0, -1, -1, 0, 2003, 7, 2, 0, 0.01, 0.01, , 1.62621009044, 51.923, 51.92400000000001, , 25, 30, 1, , 5, 26, 1, 2, 2, 2.20554590384, 0, How to express doubt?,  Use scissors., 5, 51.91999999999999, 51.91999999999999, 0, 6, 6, 6, 2003, 2, 2, 0.01, fmri_v320180221225154, 60, Thu Feb 22 2018 00:40:21 GMT-0800 (PST), stroop, 60
, , , , , , , , , , 0, -1, -1, 0, 2003, 8, 2, 0, 0.01, 0.01, , 1.75107615858, 51.92599999999999, 51.929, , 25, 30, 1, , 4, 24.8, 1, 2, 2, 1.62147661914, 31, How to provide food?,  Prepare meals., 5, 51.92499999999998, 51.92599999999999, 0, 7, 7, 7, 2003, 2, 2, 0.01, fmri_v320180221225154, 60, Thu Feb 22 2018 00:40:21 GMT-0800 (PST), stroop, 60, , , , , , , 0, -1, -1, 0, 2003, 8, 2, 0, 0.01, 0.01, , 1.75107615858, 51.92599999999999, 51.929, , 25, 30, 1, , 4, 24.8, 1, 2, 2, 1.62147661914, 31, How to provide food?,  Prepare meals., 5, 51.92499999999998, 51.92599999999999, 0, 7, 7, 7, 2003, 2, 2, 0.01, fmri_v320180221225154, 60, Thu Feb 22 2018 00:40:21 GMT-0800 (PST), stroop, 60
, , , , , , , , , , 0, -1, -1, 0, 2003, 9, 2, 0, 0.01, 0.01, , 2.08062041417, 51.93099999999998, 51.934, , 25, 30, 1, , 2, 22.40000000000002, 1, 2, 2, 1.32214478745, 11, Why attend a school?,  Get a degree., 3, 51.93099999999998, 51.93099999999998, 0, 8, 8, 8, 2003, 2, 2, 0.01, fmri_v320180221225154, 60, Thu Feb 22 2018 00:40:21 GMT-0800 (PST), stroop, 60, , , , , , , 0, -1, -1, 0, 2003, 9, 2, 0, 0.01, 0.01, , 2.08062041417, 51.93099999999998, 51.934, , 25, 30, 1, , 2, 22.40000000000002, 1, 2, 2, 1.32214478745, 11, Why attend a school?,  Get a degree., 3, 51.93099999999998, 51.93099999999998, 0, 8, 8, 8, 2003, 2, 2, 0.01, fmri_v320180221225154, 60, Thu Feb 22 2018 00:40:21 GMT-0800 (PST), stroop, 60
, , , , , , , , , , 0, -1, -1, 0, 2003, 10, 1, 0.0010000000000047748, 0.01, 0.01, , 1.43727660937, 51.94, 51.94, , 25, 30, 1, , 5, 26, 1, 2, 2, 1.45154842943, 18, Why finish a job?,  Feel productive., 3, 51.93600000000001, 51.93699999999998, 0, 9, 9, 9, 2003, 2, 2, 0.01, fmri_v320180221225154, 60, Thu Feb 22 2018 00:40:21 GMT-0800 (PST), stroop, 60, , , , , , , 0, -1, -1, 0, 2003, 10, 1, 0.0010000000000047748, 0.01, 0.01, , 1.43727660937, 51.94, 51.94, , 25, 30, 1, , 5, 26, 1, 2, 2, 1.45154842943, 18, Why finish a job?,  Feel productive., 3, 51.93600000000001, 51.93699999999998, 0, 9, 9, 9, 2003, 2, 2, 0.01, fmri_v320180221225154, 60, Thu Feb 22 2018 00:40:21 GMT-0800 (PST), stroop, 60
, , , , , , , , , , 0, -1, -1, 0, 2003, 11, 2, 0, 0.01, 0.01, , 1.10530482272, 51.94200000000001, 51.946, , 25, 30, 1, , 1, 21.199999999999996, 1, 2, 2, 3.88602032466, 1, How to open a browser?,  Click a mouse., 4, 51.941, 51.94200000000001, 0, 10, 10, 10, 2003, 2, 2, 0.01, fmri_v320180221225154, 60, Thu Feb 22 2018 00:40:21 GMT-0800 (PST), stroop, 60, , , , , , , 0, -1, -1, 0, 2003, 11, 2, 0, 0.01, 0.01, , 1.10530482272, 51.94200000000001, 51.946, , 25, 30, 1, , 1, 21.199999999999996, 1, 2, 2, 3.88602032466, 1, How to open a browser?,  Click a mouse., 4, 51.941, 51.94200000000001, 0, 10, 10, 10, 2003, 2, 2, 0.01, fmri_v320180221225154, 60, Thu Feb 22 2018 00:40:21 GMT-0800 (PST), stroop, 60
, , , , , , , , , , 0, -1, -1, 0, 2003, 12, 1, 0, 0.01, 0.01, , 3.2331785912, 51.94800000000001, 51.94999999999999, , 25, 30, 1, , 4, 24.8, 1, 2, 2, 4.97182049427, 56, How to read articles?,  Open a magazine., 4, 51.946, 51.947, 0, 11, 11, 11, 2003, 2, 2, 0.01, fmri_v320180221225154, 60, Thu Feb 22 2018 00:40:21 GMT-0800 (PST), stroop, 60, , , , , , , 0, -1, -1, 0, 2003, 12, 1, 0, 0.01, 0.01, , 3.2331785912, 51.94800000000001, 51.94999999999999, , 25, 30, 1, , 4, 24.8, 1, 2, 2, 4.97182049427, 56, How to read articles?,  Open a magazine., 4, 51.946, 51.947, 0, 11, 11, 11, 2003, 2, 2, 0.01, fmri_v320180221225154, 60, Thu Feb 22 2018 00:40:21 GMT-0800 (PST), stroop, 60
, , , , , , , , , , 0, -1, -1, 0, 2003, 13, 2, 0, 0.01, 0.01, , 2.0001100622, 51.952, 51.95400000000001, , 25, 30, 1, , 8, 29.600000000000005, 1, 2, 2, 1.11985229676, 38, How to teach others?,  Give a lecture., 5, 51.95099999999999, 51.95099999999999, 0, 12, 12, 12, 2003, 2, 2, 0.01, fmri_v320180221225154, 60, Thu Feb 22 2018 00:40:21 GMT-0800 (PST), stroop, 60, , , , , , , 0, -1, -1, 0, 2003, 13, 2, 0, 0.01, 0.01, , 2.0001100622, 51.952, 51.95400000000001, , 25, 30, 1, , 8, 29.600000000000005, 1, 2, 2, 1.11985229676, 38, How to teach others?,  Give a lecture., 5, 51.95099999999999, 51.95099999999999, 0, 12, 12, 12, 2003, 2, 2, 0.01, fmri_v320180221225154, 60, Thu Feb 22 2018 00:40:21 GMT-0800 (PST), stroop, 60
, , , , , , , , , , 0, -1, -1, 0, 2003, 14, 2, 0, 0.01, 0.01, , 1.01904082086, 51.95599999999999, 51.958, , 25, 30, 1, , 7, 28.400000000000023, 1, 2, 2, 4.71442344921, 16, How to plan ahead?,  Make a list., 5, 51.954999999999984, 51.95599999999999, 0, 13, 13, 13, 2003, 2, 2, 0.01, fmri_v320180221225154, 60, Thu Feb 22 2018 00:40:21 GMT-0800 (PST), stroop, 60, , , , , , , 0, -1, -1, 0, 2003, 14, 2, 0, 0.01, 0.01, , 1.01904082086, 51.95599999999999, 51.958, , 25, 30, 1, , 7, 28.400000000000023, 1, 2, 2, 4.71442344921, 16, How to plan ahead?,  Make a list., 5, 51.954999999999984, 51.95599999999999, 0, 13, 13, 13, 2003, 2, 2, 0.01, fmri_v320180221225154, 60, Thu Feb 22 2018 00:40:21 GMT-0800 (PST), stroop, 60
, , , , , , , , , , 0, -1, -1, 0, 2003, 15, 2, 0, 0.01, 0.01, , 2.45676476313, 51.96000000000001, 51.96199999999999, , 25, 30, 1, , 9, 30.800000000000004, 1, 2, 2, 1.05700391619, 54, How to make breakfast?,  Crack eggs., 4, 51.958, 51.959, 0, 14, 14, 14, 2003, 2, 2, 0.01, fmri_v320180221225154, 60, Thu Feb 22 2018 00:40:21 GMT-0800 (PST), stroop, 60, , , , , , , 0, -1, -1, 0, 2003, 15, 2, 0, 0.01, 0.01, , 2.45676476313, 51.96000000000001, 51.96199999999999, , 25, 30, 1, , 9, 30.800000000000004, 1, 2, 2, 1.05700391619, 54, How to make breakfast?,  Crack eggs., 4, 51.958, 51.959, 0, 14, 14, 14, 2003, 2, 2, 0.01, fmri_v320180221225154, 60, Thu Feb 22 2018 00:40:21 GMT-0800 (PST), stroop, 60
, , , , , , , , , , 0, -1, -1, 0, 2003, 16, 1, 0, 0.01, 0.01, , 1.32832364425, 51.964, 51.96599999999998, , 25, 30, 1, , 3, 23.599999999999998, 1, 2, 2, 1.27029106266, 36, How to take a picture?,  Point a camera., 4, 51.962999999999994, 51.962999999999994, 0, 15, 15, 15, 2003, 2, 2, 0.01, fmri_v320180221225154, 60, Thu Feb 22 2018 00:40:21 GMT-0800 (PST), stroop, 60, , , , , , , 0, -1, -1, 0, 2003, 16, 1, 0, 0.01, 0.01, , 1.32832364425, 51.964, 51.96599999999998, , 25, 30, 1, , 3, 23.599999999999998, 1, 2, 2, 1.27029106266, 36, How to take a picture?,  Point a camera., 4, 51.962999999999994, 51.962999999999994, 0, 15, 15, 15, 2003, 2, 2, 0.01, fmri_v320180221225154, 60, Thu Feb 22 2018 00:40:21 GMT-0800 (PST), stroop, 60
, , , , , , , , , , 0, -1, -1, 0, 2003, 17, 2, 0, 0.01, 0.01, , 1.27982429898, 51.972999999999985, 51.977000000000004, , 25, 30, 1, , 2, 22.40000000000002, 1, 2, 2, 1.41040674754, 17, Why use a brush?,  Paint a picture., 1, 51.966999999999985, 51.966999999999985, 0, 16, 16, 16, 2003, 2, 2, 0.01, fmri_v320180221225154, 60, Thu Feb 22 2018 00:40:21 GMT-0800 (PST), stroop, 60, , , , , , , 0, -1, -1, 0, 2003, 17, 2, 0, 0.01, 0.01, , 1.27982429898, 51.972999999999985, 51.977000000000004, , 25, 30, 1, , 2, 22.40000000000002, 1, 2, 2, 1.41040674754, 17, Why use a brush?,  Paint a picture., 1, 51.966999999999985, 51.966999999999985, 0, 16, 16, 16, 2003, 2, 2, 0.01, fmri_v320180221225154, 60, Thu Feb 22 2018 00:40:21 GMT-0800 (PST), stroop, 60
, , , , , , , , , , 0, -1, -1, 0, 2003, 18, 2, 0, 0.01, 0.01, , 3.6731540884, 51.980999999999995, 51.983000000000004, , 25, 30, 1, , 1, 21.199999999999996, 1, 2, 2, 2.21398155229, 37, Why use credit cards?,  Go shopping., 1, 51.978999999999985, 51.97999999999999, 0, 17, 17, 17, 2003, 2, 2, 0.01, fmri_v320180221225154, 60, Thu Feb 22 2018 00:40:21 GMT-0800 (PST), stroop, 60, , , , , , , 0, -1, -1, 0, 2003, 18, 2, 0, 0.01, 0.01, , 3.6731540884, 51.980999999999995, 51.983000000000004, , 25, 30, 1, , 1, 21.199999999999996, 1, 2, 2, 2.21398155229, 37, Why use credit cards?,  Go shopping., 1, 51.978999999999985, 51.97999999999999, 0, 17, 17, 17, 2003, 2, 2, 0.01, fmri_v320180221225154, 60, Thu Feb 22 2018 00:40:21 GMT-0800 (PST), stroop, 60
, , , , , , , , , , 0, -1, -1, 0, 2003, 19, 2, 0, 0.01, 0.01, , 1.69137569807, 51.986999999999995, 51.990999999999985, , 25, 30, 1, , 8, 29.600000000000005, 1, 2, 2, 2.00189370497, 46, Why reduce pain?,  Feel well., 3, 51.98399999999998, 51.98599999999999, 0, 18, 18, 18, 2003, 2, 2, 0.01, fmri_v320180221225154, 60, Thu Feb 22 2018 00:40:21 GMT-0800 (PST), stroop, 60, , , , , , , 0, -1, -1, 0, 2003, 19, 2, 0, 0.01, 0.01, , 1.69137569807, 51.986999999999995, 51.990999999999985, , 25, 30, 1, , 8, 29.600000000000005, 1, 2, 2, 2.00189370497, 46, Why reduce pain?,  Feel well., 3, 51.98399999999998, 51.98599999999999, 0, 18, 18, 18, 2003, 2, 2, 0.01, fmri_v320180221225154, 60, Thu Feb 22 2018 00:40:21 GMT-0800 (PST), stroop, 60
, , , , , , , , , , 0, -1, -1, 0, 2003, 20, 2, 0, 0.01, 0.01, , 1.41798941299, 51.994, 51.99599999999998, , 25, 30, 1, , 9, 30.800000000000004, 1, 2, 2, 1.66977220333, 47, Why hold a party?,  Feel sociable., 3, 51.99199999999999, 51.99199999999999, 0, 19, 19, 19, 2003, 2, 2, 0.01, fmri_v320180221225154, 60, Thu Feb 22 2018 00:40:21 GMT-0800 (PST), stroop, 60, , , , , , , 0, -1, -1, 0, 2003, 20, 2, 0, 0.01, 0.01, , 1.41798941299, 51.994, 51.99599999999998, , 25, 30, 1, , 9, 30.800000000000004, 1, 2, 2, 1.66977220333, 47, Why hold a party?,  Feel sociable., 3, 51.99199999999999, 51.99199999999999, 0, 19, 19, 19, 2003, 2, 2, 0.01, fmri_v320180221225154, 60, Thu Feb 22 2018 00:40:21 GMT-0800 (PST), stroop, 60
, , , , , , , , , , 0, -1, -1, 0, 2003, 21, 1, 0, 0.01, 0.01, , 1.19027909101, 51.99799999999999, 52, , 25, 30, 1, , 6, 27.200000000000003, 1, 2, 2, 1.06878421339, 12, How to spread knowledge?,  Teach others., 6, 51.996999999999986, 51.996999999999986, 0, 20, 20, 20, 2003, 2, 2, 0.01, fmri_v320180221225154, 60, Thu Feb 22 2018 00:40:21 GMT-0800 (PST), stroop, 60, , , , , , , 0, -1, -1, 0, 2003, 21, 1, 0, 0.01, 0.01, , 1.19027909101, 51.99799999999999, 52, , 25, 30, 1, , 6, 27.200000000000003, 1, 2, 2, 1.06878421339, 12, How to spread knowledge?,  Teach others., 6, 51.996999999999986, 51.996999999999986, 0, 20, 20, 20, 2003, 2, 2, 0.01, fmri_v320180221225154, 60, Thu Feb 22 2018 00:40:21 GMT-0800 (PST), stroop, 60
, , , , , , , , , , 0, -1, -1, 0, 2003, 22, 1, 0, 0.01, 0.01, , 3.09910476005, 52.004999999999995, 52.004999999999995, , 25, 30, 1, , 5, 26, 1, 2, 2, 2.13321141537, 30, How to avoid boredom?,  Entertain oneself., 6, 52.00199999999998, 52.002999999999986, 0, 21, 21, 21, 2003, 2, 2, 0.01, fmri_v320180221225154, 60, Thu Feb 22 2018 00:40:21 GMT-0800 (PST), stroop, 60, , , , , , , 0, -1, -1, 0, 2003, 22, 1, 0, 0.01, 0.01, , 3.09910476005, 52.004999999999995, 52.004999999999995, , 25, 30, 1, , 5, 26, 1, 2, 2, 2.13321141537, 30, How to avoid boredom?,  Entertain oneself., 6, 52.00199999999998, 52.002999999999986, 0, 21, 21, 21, 2003, 2, 2, 0.01, fmri_v320180221225154, 60, Thu Feb 22 2018 00:40:21 GMT-0800 (PST), stroop, 60
, , , , , , , , , , 0, -1, -1, 0, 2003, 23, 1, 0, 0.01, 0.01, , 2.43160733617, 52.00799999999998, 52.00999999999999, , 25, 30, 1, , 7, 28.400000000000023, 1, 2, 2, 1.64654527469, 34, Why drink wine?,  Consume alcohol., 2, 52.007000000000005, 52.007000000000005, 0, 22, 22, 22, 2003, 2, 2, 0.01, fmri_v320180221225154, 60, Thu Feb 22 2018 00:40:21 GMT-0800 (PST), stroop, 60, , , , , , , 0, -1, -1, 0, 2003, 23, 1, 0, 0.01, 0.01, , 2.43160733617, 52.00799999999998, 52.00999999999999, , 25, 30, 1, , 7, 28.400000000000023, 1, 2, 2, 1.64654527469, 34, Why drink wine?,  Consume alcohol., 2, 52.007000000000005, 52.007000000000005, 0, 22, 22, 22, 2003, 2, 2, 0.01, fmri_v320180221225154, 60, Thu Feb 22 2018 00:40:21 GMT-0800 (PST), stroop, 60
, , , , , , , , , , 0, -1, -1, 0, 2003, 24, 1, 0, 0.01, 0.01, , 3.08593357694, 52.012, 52.01599999999999, , 25, 30, 1, , 3, 23.599999999999998, 1, 2, 2, 1.81091851777, 27, Why open a browser?,  Write an email., 2, 52.010999999999996, 52.010999999999996, 0, 23, 23, 23, 2003, 2, 2, 0.01, fmri_v320180221225154, 60, Thu Feb 22 2018 00:40:21 GMT-0800 (PST), stroop, 60, , , , , , , 0, -1, -1, 0, 2003, 24, 1, 0, 0.01, 0.01, , 3.08593357694, 52.012, 52.01599999999999, , 25, 30, 1, , 3, 23.599999999999998, 1, 2, 2, 1.81091851777, 27, Why open a browser?,  Write an email., 2, 52.010999999999996, 52.010999999999996, 0, 23, 23, 23, 2003, 2, 2, 0.01, fmri_v320180221225154, 60, Thu Feb 22 2018 00:40:21 GMT-0800 (PST), stroop, 60
, , , , , , , , , , 0, -1, -1, 0, 2003, 25, 1, 0, 0.01, 0.01, , 1.85954744934, 52.016999999999996, 52.019000000000005, , 25, 30, 1, , 2, 22.40000000000002, 1, 2, 2, 2.55977626172, 52, Why save money?,  Get fit., 3, 52.01599999999999, 52.01599999999999, 0, 24, 24, 24, 2003, 2, 2, 0.01, fmri_v320180221225154, 60, Thu Feb 22 2018 00:40:21 GMT-0800 (PST), stroop, 60, , , , , , , 0, -1, -1, 0, 2003, 25, 1, 0, 0.01, 0.01, , 1.85954744934, 52.016999999999996, 52.019000000000005, , 25, 30, 1, , 2, 22.40000000000002, 1, 2, 2, 2.55977626172, 52, Why save money?,  Get fit., 3, 52.01599999999999, 52.01599999999999, 0, 24, 24, 24, 2003, 2, 2, 0.01, fmri_v320180221225154, 60, Thu Feb 22 2018 00:40:21 GMT-0800 (PST), stroop, 60
, , , , , , , , , , 0, -1, -1, 0, 2003, 26, 2, 0, 0.01, 0.01, , 1.84906299872, 52.02099999999999, 52.024, , 25, 30, 1, , 8, 29.600000000000005, 1, 2, 2, 1.52044104589, 39, Why give to charity?,  Support a cause., 3, 52.019000000000005, 52.01999999999998, 0, 25, 25, 25, 2003, 2, 2, 0.01, fmri_v320180221225154, 60, Thu Feb 22 2018 00:40:21 GMT-0800 (PST), stroop, 60, , , , , , , 0, -1, -1, 0, 2003, 26, 2, 0, 0.01, 0.01, , 1.84906299872, 52.02099999999999, 52.024, , 25, 30, 1, , 8, 29.600000000000005, 1, 2, 2, 1.52044104589, 39, Why give to charity?,  Support a cause., 3, 52.019000000000005, 52.01999999999998, 0, 25, 25, 25, 2003, 2, 2, 0.01, fmri_v320180221225154, 60, Thu Feb 22 2018 00:40:21 GMT-0800 (PST), stroop, 60
, , , , , , , , , , 0, -1, -1, 0, 2003, 27, 1, 0, 0.01, 0.01, , 3.25824575429, 52.02599999999998, 52.02799999999999, , 25, 30, 1, , 7, 28.400000000000023, 1, 2, 2, 1.55978318072, 21, How to give applause?,  Clap hands., 4, 52.024, 52.025000000000006, 0, 26, 26, 26, 2003, 2, 2, 0.01, fmri_v320180221225154, 60, Thu Feb 22 2018 00:40:21 GMT-0800 (PST), stroop, 60, , , , , , , 0, -1, -1, 0, 2003, 27, 1, 0, 0.01, 0.01, , 3.25824575429, 52.02599999999998, 52.02799999999999, , 25, 30, 1, , 7, 28.400000000000023, 1, 2, 2, 1.55978318072, 21, How to give applause?,  Clap hands., 4, 52.024, 52.025000000000006, 0, 26, 26, 26, 2003, 2, 2, 0.01, fmri_v320180221225154, 60, Thu Feb 22 2018 00:40:21 GMT-0800 (PST), stroop, 60
, , , , , , , , , , 0, -1, -1, 0, 2003, 28, 2, 0, 0.01, 0.01, , 1.20064403332, 52.03299999999999, 52.03399999999999, , 25, 30, 1, , 1, 21.199999999999996, 1, 2, 2, 1.80024420449, 43, How to give a lecture?,  Brush ones hair., 4, 52.03, 52.031000000000006, 0, 27, 27, 27, 2003, 2, 2, 0.01, fmri_v320180221225154, 60, Thu Feb 22 2018 00:40:21 GMT-0800 (PST), stroop, 60, , , , , , , 0, -1, -1, 0, 2003, 28, 2, 0, 0.01, 0.01, , 1.20064403332, 52.03299999999999, 52.03399999999999, , 25, 30, 1, , 1, 21.199999999999996, 1, 2, 2, 1.80024420449, 43, How to give a lecture?,  Brush ones hair., 4, 52.03, 52.031000000000006, 0, 27, 27, 27, 2003, 2, 2, 0.01, fmri_v320180221225154, 60, Thu Feb 22 2018 00:40:21 GMT-0800 (PST), stroop, 60
, , , , , , , , , , 0, -1, -1, 0, 2003, 29, 1, 0, 0.01, 0.01, , 1.67080503281, 52.036, 52.03799999999998, , 25, 30, 1, , 5, 26, 1, 2, 2, 2.0681322541, 8, Why use a remote?,  Watch television., 1, 52.03399999999999, 52.035, 0, 28, 28, 28, 2003, 2, 2, 0.01, fmri_v320180221225154, 60, Thu Feb 22 2018 00:40:21 GMT-0800 (PST), stroop, 60, , , , , , , 0, -1, -1, 0, 2003, 29, 1, 0, 0.01, 0.01, , 1.67080503281, 52.036, 52.03799999999998, , 25, 30, 1, , 5, 26, 1, 2, 2, 2.0681322541, 8, Why use a remote?,  Watch television., 1, 52.03399999999999, 52.035, 0, 28, 28, 28, 2003, 2, 2, 0.01, fmri_v320180221225154, 60, Thu Feb 22 2018 00:40:21 GMT-0800 (PST), stroop, 60
, , , , , , , , , , 0, -1, -1, 0, 2003, 30, 2, 0, 0.01, 0.01, , 1.97283107424, 52.03999999999999, 52.041, , 25, 30, 1, , 9, 30.800000000000004, 1, 2, 2, 1.34727145922, 23, Why follow recipes?,  Prepare meals., 1, 52.03899999999999, 52.03999999999999, 0, 29, 29, 29, 2003, 2, 2, 0.01, fmri_v320180221225154, 60, Thu Feb 22 2018 00:40:21 GMT-0800 (PST), stroop, 60, , , , , , , 0, -1, -1, 0, 2003, 30, 2, 0, 0.01, 0.01, , 1.97283107424, 52.03999999999999, 52.041, , 25, 30, 1, , 9, 30.800000000000004, 1, 2, 2, 1.34727145922, 23, Why follow recipes?,  Prepare meals., 1, 52.03899999999999, 52.03999999999999, 0, 29, 29, 29, 2003, 2, 2, 0.01, fmri_v320180221225154, 60, Thu Feb 22 2018 00:40:21 GMT-0800 (PST), stroop, 60
, , , , , , , , , , 0, -1, -1, 0, 2003, 31, 1, 0, 0.01, 0.01, , 2.28482469584, 52.04499999999999, 52.04499999999999, , 25, 30, 1, , 4, 24.8, 1, 2, 2, 2.73047443009, 5, How to gain knowledge?,  Read articles., 5, 52.042, 52.042, 0, 30, 30, 30, 2003, 2, 2, 0.01, fmri_v320180221225154, 60, Thu Feb 22 2018 00:40:21 GMT-0800 (PST), stroop, 60, , , , , , , 0, -1, -1, 0, 2003, 31, 1, 0, 0.01, 0.01, , 2.28482469584, 52.04499999999999, 52.04499999999999, , 25, 30, 1, , 4, 24.8, 1, 2, 2, 2.73047443009, 5, How to gain knowledge?,  Read articles., 5, 52.042, 52.042, 0, 30, 30, 30, 2003, 2, 2, 0.01, fmri_v320180221225154, 60, Thu Feb 22 2018 00:40:21 GMT-0800 (PST), stroop, 60
, , , , , , , , , , 0, -1, -1, 0, 2003, 32, 2, 0, 0.01, 0.01, , 3.52463536277, 52.048, 52.04900000000001, , 25, 30, 1, , 6, 27.200000000000003, 1, 2, 2, 1.16824043009, 48, How to attend a school?,  Enter a classroom., 5, 52.04599999999999, 52.047, 0, 31, 31, 31, 2003, 2, 2, 0.01, fmri_v320180221225154, 60, Thu Feb 22 2018 00:40:21 GMT-0800 (PST), stroop, 60, , , , , , , 0, -1, -1, 0, 2003, 32, 2, 0, 0.01, 0.01, , 3.52463536277, 52.048, 52.04900000000001, , 25, 30, 1, , 6, 27.200000000000003, 1, 2, 2, 1.16824043009, 48, How to attend a school?,  Enter a classroom., 5, 52.04599999999999, 52.047, 0, 31, 31, 31, 2003, 2, 2, 0.01, fmri_v320180221225154, 60, Thu Feb 22 2018 00:40:21 GMT-0800 (PST), stroop, 60
, , , , , , , , , , 0, -1, -1, 0, 2003, 33, 2, 0, 0.01, 0.01, , 2.59740797609, 52.05099999999999, 52.053, , 25, 30, 1, , 4, 24.8, 1, 2, 2, 1.3466737657, 26, How to avoid mistakes?,  Obey laws., 6, 52.04900000000001, 52.04999999999998, 0, 32, 32, 32, 2003, 2, 2, 0.01, fmri_v320180221225154, 60, Thu Feb 22 2018 00:40:21 GMT-0800 (PST), stroop, 60, , , , , , , 0, -1, -1, 0, 2003, 33, 2, 0, 0.01, 0.01, , 2.59740797609, 52.05099999999999, 52.053, , 25, 30, 1, , 4, 24.8, 1, 2, 2, 1.3466737657, 26, How to avoid mistakes?,  Obey laws., 6, 52.04900000000001, 52.04999999999998, 0, 32, 32, 32, 2003, 2, 2, 0.01, fmri_v320180221225154, 60, Thu Feb 22 2018 00:40:21 GMT-0800 (PST), stroop, 60
, , , , , , , , , , 0, -1, -1, 0, 2003, 34, 1, 0, 0.01, 0.01, , 1.82971425722, 52.05699999999999, 52.05799999999999, , 25, 30, 1, , 5, 26, 1, 2, 2, 2.50319713866, 10, How to feel productive?,  Finish a job., 6, 52.05500000000001, 52.05599999999998, 0, 33, 33, 33, 2003, 2, 2, 0.01, fmri_v320180221225154, 60, Thu Feb 22 2018 00:40:21 GMT-0800 (PST), stroop, 60, , , , , , , 0, -1, -1, 0, 2003, 34, 1, 0, 0.01, 0.01, , 1.82971425722, 52.05699999999999, 52.05799999999999, , 25, 30, 1, , 5, 26, 1, 2, 2, 2.50319713866, 10, How to feel productive?,  Finish a job., 6, 52.05500000000001, 52.05599999999998, 0, 33, 33, 33, 2003, 2, 2, 0.01, fmri_v320180221225154, 60, Thu Feb 22 2018 00:40:21 GMT-0800 (PST), stroop, 60
, , , , , , , , , , 0, -1, -1, 0, 2003, 35, 1, 0, 0.01, 0.01, , 1.33385874489, 52.06100000000001, 52.06199999999998, , 25, 30, 1, , 3, 23.599999999999998, 1, 2, 2, 2.79620913948, 15, Why make breakfast?,  Satisfy hunger., 2, 52.059, 52.06, 0, 34, 34, 34, 2003, 2, 2, 0.01, fmri_v320180221225154, 60, Thu Feb 22 2018 00:40:21 GMT-0800 (PST), stroop, 60, , , , , , , 0, -1, -1, 0, 2003, 35, 1, 0, 0.01, 0.01, , 1.33385874489, 52.06100000000001, 52.06199999999998, , 25, 30, 1, , 3, 23.599999999999998, 1, 2, 2, 2.79620913948, 15, Why make breakfast?,  Satisfy hunger., 2, 52.059, 52.06, 0, 34, 34, 34, 2003, 2, 2, 0.01, fmri_v320180221225154, 60, Thu Feb 22 2018 00:40:21 GMT-0800 (PST), stroop, 60
, , , , , , , , , , 0, -1, -1, 0, 2003, 36, 2, 0, 0.01, 0.01, , 1.00227989599, 52.06299999999999, 52.06399999999999, , 25, 30, 1, , 8, 29.600000000000005, 1, 2, 2, 2.22922635316, 13, Why take a picture?,  Keep a memory., 2, 52.06199999999998, 52.06299999999999, 0, 35, 35, 35, 2003, 2, 2, 0.01, fmri_v320180221225154, 60, Thu Feb 22 2018 00:40:21 GMT-0800 (PST), stroop, 60, , , , , , , 0, -1, -1, 0, 2003, 36, 2, 0, 0.01, 0.01, , 1.00227989599, 52.06299999999999, 52.06399999999999, , 25, 30, 1, , 8, 29.600000000000005, 1, 2, 2, 2.22922635316, 13, Why take a picture?,  Keep a memory., 2, 52.06199999999998, 52.06299999999999, 0, 35, 35, 35, 2003, 2, 2, 0.01, fmri_v320180221225154, 60, Thu Feb 22 2018 00:40:21 GMT-0800 (PST), stroop, 60
, , , , , , , , , , 0, -1, -1, 0, 2003, 37, 1, 0, 0.01, 0.01, , 1.71437804416, 52.06700000000001, 52.067999999999984, , 25, 30, 1, , 6, 27.200000000000003, 1, 2, 2, 1.21504877308, 58, Why avoid diseases?,  Live a long life., 3, 52.065, 52.066, 0, 36, 36, 36, 2003, 2, 2, 0.01, fmri_v320180221225154, 60, Thu Feb 22 2018 00:40:21 GMT-0800 (PST), stroop, 60, , , , , , , 0, -1, -1, 0, 2003, 37, 1, 0, 0.01, 0.01, , 1.71437804416, 52.06700000000001, 52.067999999999984, , 25, 30, 1, , 6, 27.200000000000003, 1, 2, 2, 1.21504877308, 58, Why avoid diseases?,  Live a long life., 3, 52.065, 52.066, 0, 36, 36, 36, 2003, 2, 2, 0.01, fmri_v320180221225154, 60, Thu Feb 22 2018 00:40:21 GMT-0800 (PST), stroop, 60
, , , , , , , , , , 0, -1, -1, 0, 2003, 38, 2, 0, 0.01, 0.01, , 3.9097251709, 52.06999999999999, 52.072, , 25, 30, 1, , 2, 22.40000000000002, 1, 2, 2, 1.84242549336, 41, Why share ideas?,  Show intellect., 3, 52.067999999999984, 52.06899999999999, 0, 37, 37, 37, 2003, 2, 2, 0.01, fmri_v320180221225154, 60, Thu Feb 22 2018 00:40:21 GMT-0800 (PST), stroop, 60, , , , , , , 0, -1, -1, 0, 2003, 38, 2, 0, 0.01, 0.01, , 3.9097251709, 52.06999999999999, 52.072, , 25, 30, 1, , 2, 22.40000000000002, 1, 2, 2, 1.84242549336, 41, Why share ideas?,  Show intellect., 3, 52.067999999999984, 52.06899999999999, 0, 37, 37, 37, 2003, 2, 2, 0.01, fmri_v320180221225154, 60, Thu Feb 22 2018 00:40:21 GMT-0800 (PST), stroop, 60
, , , , , , , , , , 0, -1, -1, 0, 2003, 39, 2, 0, 0.01, 0.01, , 1.42365276631, 52.073999999999984, 52.07499999999999, , 25, 30, 1, , 9, 30.800000000000004, 1, 2, 2, 1.05125121474, 28, Why use a comb?,  Write a song., 1, 52.072, 52.07300000000001, 0, 38, 38, 38, 2003, 2, 2, 0.01, fmri_v320180221225154, 60, Thu Feb 22 2018 00:40:21 GMT-0800 (PST), stroop, 60, , , , , , , 0, -1, -1, 0, 2003, 39, 2, 0, 0.01, 0.01, , 1.42365276631, 52.073999999999984, 52.07499999999999, , 25, 30, 1, , 9, 30.800000000000004, 1, 2, 2, 1.05125121474, 28, Why use a comb?,  Write a song., 1, 52.072, 52.07300000000001, 0, 38, 38, 38, 2003, 2, 2, 0.01, fmri_v320180221225154, 60, Thu Feb 22 2018 00:40:21 GMT-0800 (PST), stroop, 60
, , , , , , , , , , 0, -1, -1, 0, 2003, 40, 1, 0, 0.01, 0.01, , 1.14080201516, 52.077, 52.07900000000001, , 25, 30, 1, , 7, 28.400000000000023, 1, 2, 2, 1.10329382588, 49, Why open a magazine?,  Read articles., 1, 52.07599999999999, 52.077, 0, 39, 39, 39, 2003, 2, 2, 0.01, fmri_v320180221225154, 60, Thu Feb 22 2018 00:40:21 GMT-0800 (PST), stroop, 60, , , , , , , 0, -1, -1, 0, 2003, 40, 1, 0, 0.01, 0.01, , 1.14080201516, 52.077, 52.07900000000001, , 25, 30, 1, , 7, 28.400000000000023, 1, 2, 2, 1.10329382588, 49, Why open a magazine?,  Read articles., 1, 52.07599999999999, 52.077, 0, 39, 39, 39, 2003, 2, 2, 0.01, fmri_v320180221225154, 60, Thu Feb 22 2018 00:40:21 GMT-0800 (PST), stroop, 60
, , , , , , , , , , 0, -1, -1, 0, 2003, 41, 2, 0, 0.01, 0.01, , 1.41651297133, 52.081999999999994, 52.081999999999994, , 25, 30, 1, , 4, 24.8, 1, 2, 2, 3.83249209935, 59, How to clip coupons?,  Cut paper., 4, 52.079999999999984, 52.08099999999999, 0, 40, 40, 40, 2003, 2, 2, 0.01, fmri_v320180221225154, 60, Thu Feb 22 2018 00:40:21 GMT-0800 (PST), stroop, 60, , , , , , , 0, -1, -1, 0, 2003, 41, 2, 0, 0.01, 0.01, , 1.41651297133, 52.081999999999994, 52.081999999999994, , 25, 30, 1, , 4, 24.8, 1, 2, 2, 3.83249209935, 59, How to clip coupons?,  Cut paper., 4, 52.079999999999984, 52.08099999999999, 0, 40, 40, 40, 2003, 2, 2, 0.01, fmri_v320180221225154, 60, Thu Feb 22 2018 00:40:21 GMT-0800 (PST), stroop, 60
, , , , , , , , , , 0, -1, -1, 0, 2003, 42, 1, 0, 0.01, 0.01, , 1.57561227733, 52.08500000000001, 52.085999999999984, , 25, 30, 1, , 3, 23.599999999999998, 1, 2, 2, 2.49946912585, 45, How to write a song?,  Play piano., 4, 52.083, 52.084, 0, 41, 41, 41, 2003, 2, 2, 0.01, fmri_v320180221225154, 60, Thu Feb 22 2018 00:40:21 GMT-0800 (PST), stroop, 60, , , , , , , 0, -1, -1, 0, 2003, 42, 1, 0, 0.01, 0.01, , 1.57561227733, 52.08500000000001, 52.085999999999984, , 25, 30, 1, , 3, 23.599999999999998, 1, 2, 2, 2.49946912585, 45, How to write a song?,  Play piano., 4, 52.083, 52.084, 0, 41, 41, 41, 2003, 2, 2, 0.01, fmri_v320180221225154, 60, Thu Feb 22 2018 00:40:21 GMT-0800 (PST), stroop, 60
, , , , , , , , , , 0, -1, -1, 0, 2003, 43, 1, 0, 0.01, 0.01, , 3.67350895656, 52.08699999999999, 52.089, , 25, 30, 1, , 8, 29.600000000000005, 1, 2, 2, 2.01235112449, 35, How to entertain oneself?,  Watch television., 5, 52.08699999999999, 52.08699999999999, 0, 42, 42, 42, 2003, 2, 2, 0.01, fmri_v320180221225154, 60, Thu Feb 22 2018 00:40:21 GMT-0800 (PST), stroop, 60, , , , , , , 0, -1, -1, 0, 2003, 43, 1, 0, 0.01, 0.01, , 3.67350895656, 52.08699999999999, 52.089, , 25, 30, 1, , 8, 29.600000000000005, 1, 2, 2, 2.01235112449, 35, How to entertain oneself?,  Watch television., 5, 52.08699999999999, 52.08699999999999, 0, 42, 42, 42, 2003, 2, 2, 0.01, fmri_v320180221225154, 60, Thu Feb 22 2018 00:40:21 GMT-0800 (PST), stroop, 60
, , , , , , , , , , 0, -1, -1, 0, 2003, 44, 2, 0.0009999999999763531, 0.01, 0.01, , 1.25750812425, 52.09099999999998, 52.09099999999998, , 25, 30, 1, , 5, 26, 1, 2, 2, 2.04051422337, 2, How to entertain others?,  Write a song., 5, 52.089, 52.089, 0, 43, 43, 43, 2003, 2, 2, 0.01, fmri_v320180221225154, 60, Thu Feb 22 2018 00:40:21 GMT-0800 (PST), stroop, 60, , , , , , , 0, -1, -1, 0, 2003, 44, 2, 0.0009999999999763531, 0.01, 0.01, , 1.25750812425, 52.09099999999998, 52.09099999999998, , 25, 30, 1, , 5, 26, 1, 2, 2, 2.04051422337, 2, How to entertain others?,  Write a song., 5, 52.089, 52.089, 0, 43, 43, 43, 2003, 2, 2, 0.01, fmri_v320180221225154, 60, Thu Feb 22 2018 00:40:21 GMT-0800 (PST), stroop, 60
, , , , , , , , , , 0, -1, -1, 0, 2003, 45, 2, 0.0010000000000047748, 0.01, 0.01, , 2.12195817817, 52.09299999999999, 52.093999999999994, , 25, 30, 1, , 6, 27.200000000000003, 1, 2, 2, 2.07597289554, 42, How to achieve success?,  Get a promotion., 6, 52.091999999999985, 52.091999999999985, 0, 44, 44, 44, 2003, 2, 2, 0.01, fmri_v320180221225154, 60, Thu Feb 22 2018 00:40:21 GMT-0800 (PST), stroop, 60, , , , , , , 0, -1, -1, 0, 2003, 45, 2, 0.0010000000000047748, 0.01, 0.01, , 2.12195817817, 52.09299999999999, 52.093999999999994, , 25, 30, 1, , 6, 27.200000000000003, 1, 2, 2, 2.07597289554, 42, How to achieve success?,  Get a promotion., 6, 52.091999999999985, 52.091999999999985, 0, 44, 44, 44, 2003, 2, 2, 0.01, fmri_v320180221225154, 60, Thu Feb 22 2018 00:40:21 GMT-0800 (PST), stroop, 60
, , , , , , , , , , 0, -1, -1, 0, 2003, 46, 1, 0, 0.01, 0.01, , 1.25748070652, 52.097999999999985, 52.09899999999999, , 25, 30, 1, , 2, 22.40000000000002, 1, 2, 2, 2.04949011398, 29, How to impress others?,  Show intelligence., 6, 52.096000000000004, 52.096000000000004, 0, 45, 45, 45, 2003, 2, 2, 0.01, fmri_v320180221225154, 60, Thu Feb 22 2018 00:40:21 GMT-0800 (PST), stroop, 60, , , , , , , 0, -1, -1, 0, 2003, 46, 1, 0, 0.01, 0.01, , 1.25748070652, 52.097999999999985, 52.09899999999999, , 25, 30, 1, , 2, 22.40000000000002, 1, 2, 2, 2.04949011398, 29, How to impress others?,  Show intelligence., 6, 52.096000000000004, 52.096000000000004, 0, 45, 45, 45, 2003, 2, 2, 0.01, fmri_v320180221225154, 60, Thu Feb 22 2018 00:40:21 GMT-0800 (PST), stroop, 60
, , , , , , , , , , 0, -1, -1, 0, 2003, 47, 2, 0, 0.01, 0.01, , 1.80726739468, 52.101, 52.10499999999999, , 25, 30, 1, , 1, 21.199999999999996, 1, 2, 2, 1.45905882593, 6, Why give a lecture?,  Teach others., 2, 52.099999999999994, 52.101, 0, 46, 46, 46, 2003, 2, 2, 0.01, fmri_v320180221225154, 60, Thu Feb 22 2018 00:40:21 GMT-0800 (PST), stroop, 60, , , , , , , 0, -1, -1, 0, 2003, 47, 2, 0, 0.01, 0.01, , 1.80726739468, 52.101, 52.10499999999999, , 25, 30, 1, , 1, 21.199999999999996, 1, 2, 2, 1.45905882593, 6, Why give a lecture?,  Teach others., 2, 52.099999999999994, 52.101, 0, 46, 46, 46, 2003, 2, 2, 0.01, fmri_v320180221225154, 60, Thu Feb 22 2018 00:40:21 GMT-0800 (PST), stroop, 60
, , , , , , , , , , 0, -1, -1, 0, 2003, 48, 1, 0, 0.01, 0.01, , 1.56518979049, 52.107, 52.107, , 25, 30, 1, , 9, 30.800000000000004, 1, 2, 2, 2.37882346751, 3, Why teach a class?,  Obey laws., 2, 52.10499999999999, 52.105999999999995, 0, 47, 47, 47, 2003, 2, 2, 0.01, fmri_v320180221225154, 60, Thu Feb 22 2018 00:40:21 GMT-0800 (PST), stroop, 60, , , , , , , 0, -1, -1, 0, 2003, 48, 1, 0, 0.01, 0.01, , 1.56518979049, 52.107, 52.107, , 25, 30, 1, , 9, 30.800000000000004, 1, 2, 2, 2.37882346751, 3, Why teach a class?,  Obey laws., 2, 52.10499999999999, 52.105999999999995, 0, 47, 47, 47, 2003, 2, 2, 0.01, fmri_v320180221225154, 60, Thu Feb 22 2018 00:40:21 GMT-0800 (PST), stroop, 60
, , , , , , , , , , 0, -1, -1, 0, 2003, 49, 2, 0, 0.01, 0.01, , 2.31280525866, 52.109999999999985, 52.111999999999995, , 25, 30, 1, , 6, 27.200000000000003, 1, 2, 2, 1.07856693949, 7, Why entertain others?,  Express a talent., 3, 52.10899999999998, 52.10899999999998, 0, 48, 48, 48, 2003, 2, 2, 0.01, fmri_v320180221225154, 60, Thu Feb 22 2018 00:40:21 GMT-0800 (PST), stroop, 60, , , , , , , 0, -1, -1, 0, 2003, 49, 2, 0, 0.01, 0.01, , 2.31280525866, 52.109999999999985, 52.111999999999995, , 25, 30, 1, , 6, 27.200000000000003, 1, 2, 2, 1.07856693949, 7, Why entertain others?,  Express a talent., 3, 52.10899999999998, 52.10899999999998, 0, 48, 48, 48, 2003, 2, 2, 0.01, fmri_v320180221225154, 60, Thu Feb 22 2018 00:40:21 GMT-0800 (PST), stroop, 60
, , , , , , , , , , 0, -1, -1, 0, 2003, 50, 2, 0, 0.01, 0.01, , 2.0769829487, 52.114000000000004, 52.11499999999998, , 25, 30, 1, , 3, 23.599999999999998, 1, 2, 2, 3.19442158625, 50, Why contact a friend?,  Feel connected., 3, 52.113, 52.113, 0, 49, 49, 49, 2003, 2, 2, 0.01, fmri_v320180221225154, 60, Thu Feb 22 2018 00:40:21 GMT-0800 (PST), stroop, 60, , , , , , , 0, -1, -1, 0, 2003, 50, 2, 0, 0.01, 0.01, , 2.0769829487, 52.114000000000004, 52.11499999999998, , 25, 30, 1, , 3, 23.599999999999998, 1, 2, 2, 3.19442158625, 50, Why contact a friend?,  Feel connected., 3, 52.113, 52.113, 0, 49, 49, 49, 2003, 2, 2, 0.01, fmri_v320180221225154, 60, Thu Feb 22 2018 00:40:21 GMT-0800 (PST), stroop, 60
, , , , , , , , , , 0, -1, -1, 0, 2003, 51, 1, 0, 0.01, 0.01, , 1.94313414826, 52.11699999999999, 52.117999999999995, , 25, 30, 1, , 8, 29.600000000000005, 1, 2, 2, 2.8793830497, 44, Why paint a picture?,  Make art., 2, 52.115999999999985, 52.115999999999985, 0, 50, 50, 50, 2003, 2, 2, 0.01, fmri_v320180221225154, 60, Thu Feb 22 2018 00:40:21 GMT-0800 (PST), stroop, 60, , , , , , , 0, -1, -1, 0, 2003, 51, 1, 0, 0.01, 0.01, , 1.94313414826, 52.11699999999999, 52.117999999999995, , 25, 30, 1, , 8, 29.600000000000005, 1, 2, 2, 2.8793830497, 44, Why paint a picture?,  Make art., 2, 52.115999999999985, 52.115999999999985, 0, 50, 50, 50, 2003, 2, 2, 0.01, fmri_v320180221225154, 60, Thu Feb 22 2018 00:40:21 GMT-0800 (PST), stroop, 60
, , , , , , , , , , 0, -1, -1, 0, 2003, 52, 2, 0, 0.01, 0.01, , 1.38623920683, 52.12099999999998, 52.121999999999986, , 25, 30, 1, , 5, 26, 1, 2, 2, 1.08774472628, 57, Why use a camera?,  Give to charity., 2, 52.119, 52.120000000000005, 0, 51, 51, 51, 2003, 2, 2, 0.01, fmri_v320180221225154, 60, Thu Feb 22 2018 00:40:21 GMT-0800 (PST), stroop, 60, , , , , , , 0, -1, -1, 0, 2003, 52, 2, 0, 0.01, 0.01, , 1.38623920683, 52.12099999999998, 52.121999999999986, , 25, 30, 1, , 5, 26, 1, 2, 2, 1.08774472628, 57, Why use a camera?,  Give to charity., 2, 52.119, 52.120000000000005, 0, 51, 51, 51, 2003, 2, 2, 0.01, fmri_v320180221225154, 60, Thu Feb 22 2018 00:40:21 GMT-0800 (PST), stroop, 60
, , , , , , , , , , 0, -1, -1, 0, 2003, 53, 1, 0, 0.01, 0.01, , 3.15817613769, 52.12299999999999, 52.123999999999995, , 25, 30, 1, , 4, 24.8, 1, 2, 2, 2.74107197002, 51, Why wear ties?,  Dress formally., 1, 52.121999999999986, 52.121999999999986, 0, 52, 52, 52, 2003, 2, 2, 0.01, fmri_v320180221225154, 60, Thu Feb 22 2018 00:40:21 GMT-0800 (PST), stroop, 60, , , , , , , 0, -1, -1, 0, 2003, 53, 1, 0, 0.01, 0.01, , 3.15817613769, 52.12299999999999, 52.123999999999995, , 25, 30, 1, , 4, 24.8, 1, 2, 2, 2.74107197002, 51, Why wear ties?,  Dress formally., 1, 52.121999999999986, 52.121999999999986, 0, 52, 52, 52, 2003, 2, 2, 0.01, fmri_v320180221225154, 60, Thu Feb 22 2018 00:40:21 GMT-0800 (PST), stroop, 60
, , , , , , , , , , 0, -1, -1, 0, 2003, 54, 1, 0, 0.01, 0.01, , 1.74919682185, 52.126000000000005, 52.126000000000005, , 25, 30, 1, , 1, 21.199999999999996, 1, 2, 2, 1.57204502473, 32, Why turn a doorknob?,  Enter a classroom., 1, 52.123999999999995, 52.123999999999995, 0, 53, 53, 53, 2003, 2, 2, 0.01, fmri_v320180221225154, 60, Thu Feb 22 2018 00:40:21 GMT-0800 (PST), stroop, 60, , , , , , , 0, -1, -1, 0, 2003, 54, 1, 0, 0.01, 0.01, , 1.74919682185, 52.126000000000005, 52.126000000000005, , 25, 30, 1, , 1, 21.199999999999996, 1, 2, 2, 1.57204502473, 32, Why turn a doorknob?,  Enter a classroom., 1, 52.123999999999995, 52.123999999999995, 0, 53, 53, 53, 2003, 2, 2, 0.01, fmri_v320180221225154, 60, Thu Feb 22 2018 00:40:21 GMT-0800 (PST), stroop, 60
, , , , , , , , , , 0, -1, -1, 0, 2003, 55, 2, 0, 0.01, 0.01, , 1.94417233811, 52.12699999999998, 52.127999999999986, , 25, 30, 1, , 9, 30.800000000000004, 1, 2, 2, 1.02635418299, 19, How to show intellect?,  Share ideas., 6, 52.126000000000005, 52.12699999999998, 0, 54, 54, 54, 2003, 2, 2, 0.01, fmri_v320180221225154, 60, Thu Feb 22 2018 00:40:21 GMT-0800 (PST), stroop, 60, , , , , , , 0, -1, -1, 0, 2003, 55, 2, 0, 0.01, 0.01, , 1.94417233811, 52.12699999999998, 52.127999999999986, , 25, 30, 1, , 9, 30.800000000000004, 1, 2, 2, 1.02635418299, 19, How to show intellect?,  Share ideas., 6, 52.126000000000005, 52.12699999999998, 0, 54, 54, 54, 2003, 2, 2, 0.01, fmri_v320180221225154, 60, Thu Feb 22 2018 00:40:21 GMT-0800 (PST), stroop, 60
, , , , , , , , , , 0, -1, -1, 0, 2003, 56, 1, 0, 0.01, 0.01, , 3.56605146348, 52.127999999999986, 52.129999999999995, , 25, 30, 1, , 2, 22.40000000000002, 1, 2, 2, 2.63981141037, 9, How to live a long life?,  Avoid diseases., 6, 52.127999999999986, 52.127999999999986, 0, 55, 55, 55, 2003, 2, 2, 0.01, fmri_v320180221225154, 60, Thu Feb 22 2018 00:40:21 GMT-0800 (PST), stroop, 60, , , , , , , 0, -1, -1, 0, 2003, 56, 1, 0, 0.01, 0.01, , 3.56605146348, 52.127999999999986, 52.129999999999995, , 25, 30, 1, , 2, 22.40000000000002, 1, 2, 2, 2.63981141037, 9, How to live a long life?,  Avoid diseases., 6, 52.127999999999986, 52.127999999999986, 0, 55, 55, 55, 2003, 2, 2, 0.01, fmri_v320180221225154, 60, Thu Feb 22 2018 00:40:21 GMT-0800 (PST), stroop, 60
, , , , , , , , , , 0, -1, -1, 0, 2003, 57, 1, 0, 0.01, 0.01, , 1.14900032554, 52.131, 52.131, , 25, 30, 1, , 1, 21.199999999999996, 1, 2, 2, 1.6878579988, 22, How to consume alcohol?,  Drink wine., 5, 52.129999999999995, 52.129999999999995, 0, 56, 56, 56, 2003, 2, 2, 0.01, fmri_v320180221225154, 60, Thu Feb 22 2018 00:40:21 GMT-0800 (PST), stroop, 60, , , , , , , 0, -1, -1, 0, 2003, 57, 1, 0, 0.01, 0.01, , 1.14900032554, 52.131, 52.131, , 25, 30, 1, , 1, 21.199999999999996, 1, 2, 2, 1.6878579988, 22, How to consume alcohol?,  Drink wine., 5, 52.129999999999995, 52.129999999999995, 0, 56, 56, 56, 2003, 2, 2, 0.01, fmri_v320180221225154, 60, Thu Feb 22 2018 00:40:21 GMT-0800 (PST), stroop, 60
, , , , , , , , , , 0, -1, -1, 0, 2003, 58, 2, 0, 0.01, 0.01, , 2.57297989667, 52.13499999999999, 52.135999999999996, , 25, 30, 1, , 3, 23.599999999999998, 1, 2, 2, 1.92176108339, 40, How to build muscles?,  Lift weights., 5, 52.131, 52.133999999999986, 0, 57, 57, 57, 2003, 2, 2, 0.01, fmri_v320180221225154, 60, Thu Feb 22 2018 00:40:21 GMT-0800 (PST), stroop, 60, , , , , , , 0, -1, -1, 0, 2003, 58, 2, 0, 0.01, 0.01, , 2.57297989667, 52.13499999999999, 52.135999999999996, , 25, 30, 1, , 3, 23.599999999999998, 1, 2, 2, 1.92176108339, 40, How to build muscles?,  Lift weights., 5, 52.131, 52.133999999999986, 0, 57, 57, 57, 2003, 2, 2, 0.01, fmri_v320180221225154, 60, Thu Feb 22 2018 00:40:21 GMT-0800 (PST), stroop, 60
, , , , , , , , , , 0, -1, -1, 0, 2003, 59, 1, 0, 0.01, 0.01, , 2.14019811723, 52.137, 52.138000000000005, , 25, 30, 1, , 7, 28.400000000000023, 1, 2, 2, 1.31252999142, 20, How to write a poem?,  Grab a pencil., 4, 52.137, 52.137, 0, 58, 58, 58, 2003, 2, 2, 0.01, fmri_v320180221225154, 60, Thu Feb 22 2018 00:40:21 GMT-0800 (PST), stroop, 60, , , , , , , 0, -1, -1, 0, 2003, 59, 1, 0, 0.01, 0.01, , 2.14019811723, 52.137, 52.138000000000005, , 25, 30, 1, , 7, 28.400000000000023, 1, 2, 2, 1.31252999142, 20, How to write a poem?,  Grab a pencil., 4, 52.137, 52.137, 0, 58, 58, 58, 2003, 2, 2, 0.01, fmri_v320180221225154, 60, Thu Feb 22 2018 00:40:21 GMT-0800 (PST), stroop, 60
, , , , , , , , , , 0, -1, -1, 0, 2003, 60, 2, 0, 0.01, 0.01, , 1.22989851645, 52.14099999999999, 52.143, , 25, 30, 1, , 9, 30.800000000000004, 1, 2, 2, 1.81917906438, 24, How to drink wine?,  Open a bottle. , 4, 52.13899999999998, 52.139999999999986, 0, 59, 59, 59, 2003, 2, 2, 0.01, fmri_v320180221225154, 60, Thu Feb 22 2018 00:40:21 GMT-0800 (PST), stroop, 60, , , , , , , 0, -1, -1, 0, 2003, 60, 2, 0, 0.01, 0.01, , 1.22989851645, 52.14099999999999, 52.143, , 25, 30, 1, , 9, 30.800000000000004, 1, 2, 2, 1.81917906438, 24, How to drink wine?,  Open a bottle. , 4, 52.13899999999998, 52.139999999999986, 0, 59, 59, 59, 2003, 2, 2, 0.01, fmri_v320180221225154, 60, Thu Feb 22 2018 00:40:21 GMT-0800 (PST), stroop, 60
