resp_fMRI.keys, resp_fMRI.rt, construal_resp.keys, construal_resp.rt, resp_trial.keys, resp_trial.rt, instructionLoop.thisRepN, instructionLoop.thisTrialN, instructionLoop.thisN, instructionLoop.thisIndex, blocks.thisRepN, blocks.thisTrialN, blocks.thisN, blocks.thisIndex, Subject, Trial, SSonLorR, RT, startingK, endingK, TrialStart, ITI, choiceUp, choiceMade, TrialOver, SSamount, LLamount, Condition, Choice, SSdelay, LLdelay, salienceCondition, day, runid, TaskInterval, RewardTrialRanked, Construal_QuestionText, Construal_AnswerText, Construal_Condition, construal_trialUp, construal_trialComplete, trials_set1.thisRepN, trials_set1.thisTrialN, trials_set1.thisN, trials_set1.thisIndex, participant, session, run, k_val, designDir, total_time_limit, date, expName, frameRate
5, 1.02800000000002, , , , , , , , , 0, -1, -1, 0, 2000, 1, 2, 0.617999999999995, 0.01, 0.005623413251903492, , 1.1039073215, 20.46199999999999, 21.07899999999998, , 25, 30, 1, LL, 5, 26, 1, 1, 1, 1.34502269476, 3, Why share ideas?,  Show intellect., 3, 11.650999999999982, 19.341999999999985, 0, 0, 0, 0, 2000, 1, 1, 0.01, fmri_v220180219183556, 60, Wed Feb 21 2018 18:41:03 GMT-0800 (PST), stroop, 60
, , , , , , , , , , 0, -1, -1, 0, 2000, 2, 1, 6.007000000000005, 0.005623413251903492, 0.005623413251903492, , 1.07871365773, 28.252999999999986, 34.260999999999996, , 25, 30, 1, , 1, 36.765588200778424, 1, 1, 1, 2.38327980452, 28, Why save money?,  Get fit., 3, 23.163999999999987, 27.168999999999983, 0, 1, 1, 1, 2000, 1, 1, 0.01, fmri_v220180219183556, 60, Wed Feb 21 2018 18:41:03 GMT-0800 (PST), stroop, 60
, , 2, 0.33200000000002206, , , , , , , 0, -1, -1, 0, 2000, 3, 1, 0.41800000000000637, 0.005623413251903492, 0.010000000000000002, , 1.95895897411, 40.28399999999999, 40.702, , 25, 30, 1, SS, 4, 40.36558820077849, 1, 1, 1, 1.88003985742, 2, Why throw away trash?,  Make a list., 1, 36.228999999999985, 38.315, 0, 2, 2, 2, 2000, 1, 1, 0.01, fmri_v220180219183556, 60, Wed Feb 21 2018 18:41:03 GMT-0800 (PST), stroop, 60
, , 2, 0.3509999999999991, , , , , , , 0, -1, -1, 0, 2000, 4, 1, 0.46699999999998454, 0.010000000000000002, 0.01778279410038923, , 2.21451099245, 48.242999999999995, 48.708999999999975, , 25, 30, 1, SS, 7, 28.40000000000002, 1, 1, 1, 1.8811858104, 53, Why dial numbers?,  Make a phone call., 1, 43.922, 46.02399999999997, 0, 3, 3, 3, 2000, 1, 1, 0.01, fmri_v220180219183556, 60, Wed Feb 21 2018 18:41:03 GMT-0800 (PST), stroop, 60
, , , , , , , , , , 0, -1, -1, 0, 2000, 5, 1, 0, 0.01778279410038923, 0.01778279410038923, , 1.24559281856, 49.714999999999975, 49.716999999999985, , 25, 30, 1, , 3, 14.846826503806989, 1, 1, 1, 1.03997512188, 32, How to read articles?,  Open a magazine., 4, 49.71199999999999, 49.71199999999999, 0, 4, 4, 4, 2000, 1, 1, 0.01, fmri_v220180219183556, 60, Wed Feb 21 2018 18:41:03 GMT-0800 (PST), stroop, 60
, , , , , , , , , , 0, -1, -1, 0, 2000, 6, 1, 0, 0.01778279410038923, 0.01778279410038923, , 2.88357426458, 49.72, 49.720999999999975, , 25, 30, 1, , 6, 18.446826503806978, 1, 1, 1, 5.46168450577, 20, How to watch television?,  Use a remote., 4, 49.71799999999999, 49.71799999999999, 0, 5, 5, 5, 2000, 1, 1, 0.01, fmri_v220180219183556, 60, Wed Feb 21 2018 18:41:03 GMT-0800 (PST), stroop, 60
, , , , , , , , , , 0, -1, -1, 0, 2000, 7, 2, 0, 0.01778279410038923, 0.01778279410038923, , 1.70888830416, 49.726, 49.72999999999999, , 25, 30, 1, , 9, 22.046826503806976, 1, 1, 1, 1.21639389138, 19, How to feel nostalgia?,  Keep a memory., 6, 49.72199999999998, 49.722999999999985, 0, 6, 6, 6, 2000, 1, 1, 0.01, fmri_v220180219183556, 60, Wed Feb 21 2018 18:41:03 GMT-0800 (PST), stroop, 60
, , , , , , , , , , 0, -1, -1, 0, 2000, 8, 1, 0, 0.01778279410038923, 0.01778279410038923, , 2.10363239445, 49.732999999999976, 49.734999999999985, , 25, 30, 1, , 8, 20.846826503806987, 1, 1, 1, 1.29616920219, 52, How to support a cause?,  Give to charity., 6, 49.72999999999999, 49.730999999999995, 0, 7, 7, 7, 2000, 1, 1, 0.01, fmri_v220180219183556, 60, Wed Feb 21 2018 18:41:03 GMT-0800 (PST), stroop, 60
, , , , , , , , , , 0, -1, -1, 0, 2000, 9, 2, 0, 0.01778279410038923, 0.01778279410038923, , 1.48126731675, 49.736999999999995, 49.738999999999976, , 25, 30, 1, , 2, 13.646826503806977, 1, 1, 1, 1.73128069861, 27, Why participate in class?,  Show intelligence., 2, 49.734999999999985, 49.73599999999999, 0, 8, 8, 8, 2000, 1, 1, 0.01, fmri_v220180219183556, 60, Wed Feb 21 2018 18:41:03 GMT-0800 (PST), stroop, 60
, , , , , , , , , , 0, -1, -1, 0, 2000, 10, 1, 0, 0.01778279410038923, 0.01778279410038923, , 1.33590290044, 49.74199999999999, 49.744999999999976, , 25, 30, 1, , 8, 20.846826503806987, 1, 1, 1, 2.38766705377, 46, Why enter a classroom?,  Attend a school., 2, 49.73999999999998, 49.73999999999998, 0, 9, 9, 9, 2000, 1, 1, 0.01, fmri_v220180219183556, 60, Wed Feb 21 2018 18:41:03 GMT-0800 (PST), stroop, 60
, , , , , , , , , , 0, -1, -1, 0, 2000, 11, 2, 0, 0.01778279410038923, 0.01778279410038923, , 2.81144621883, 49.748999999999995, 49.750999999999976, , 25, 30, 1, , 4, 16.046826503806976, 1, 1, 1, 4.66026696524, 45, How to make a donation?,  Mix a cocktail., 5, 49.74599999999998, 49.746999999999986, 0, 10, 10, 10, 2000, 1, 1, 0.01, fmri_v220180219183556, 60, Wed Feb 21 2018 18:41:03 GMT-0800 (PST), stroop, 60
, , , , , , , , , , 0, -1, -1, 0, 2000, 12, 2, 0, 0.01778279410038923, 0.01778279410038923, , 2.01322389212, 49.754999999999995, 49.75599999999997, , 25, 30, 1, , 6, 18.446826503806978, 1, 1, 1, 2.3640810896, 36, How to give to charity?,  Use a camera., 5, 49.752999999999986, 49.752999999999986, 0, 11, 11, 11, 2000, 1, 1, 0.01, fmri_v220180219183556, 60, Wed Feb 21 2018 18:41:03 GMT-0800 (PST), stroop, 60
, , , , , , , , , , 0, -1, -1, 0, 2000, 13, 2, 0, 0.01778279410038923, 0.01778279410038923, , 3.22837113602, 49.758999999999986, 49.75999999999999, , 25, 30, 1, , 7, 19.646826503806977, 1, 1, 1, 3.10316060392, 47, Why make art?,  Show creativity., 3, 49.75699999999998, 49.75799999999998, 0, 12, 12, 12, 2000, 1, 1, 0.01, fmri_v220180219183556, 60, Wed Feb 21 2018 18:41:03 GMT-0800 (PST), stroop, 60
, , , , , , , , , , 0, -1, -1, 0, 2000, 14, 1, 0, 0.01778279410038923, 0.01778279410038923, , 3.59491196764, 49.76399999999998, 49.766999999999996, , 25, 30, 1, , 1, 12.446826503806978, 1, 1, 1, 1.16103088301, 41, Why make a purchase?,  Satisfy a need., 3, 49.760999999999996, 49.76199999999997, 0, 13, 13, 13, 2000, 1, 1, 0.01, fmri_v220180219183556, 60, Wed Feb 21 2018 18:41:03 GMT-0800 (PST), stroop, 60
, , , , , , , , , , 0, -1, -1, 0, 2000, 15, 2, 0.0010000000000047748, 0.01778279410038923, 0.01778279410038923, , 1.19356770194, 49.77199999999999, 49.77499999999998, , 25, 30, 1, , 3, 14.846826503806989, 1, 1, 1, 1.08494564473, 0, Why lift a glass?,  Drink wine., 1, 49.76799999999997, 49.76899999999998, 0, 14, 14, 14, 2000, 1, 1, 0.01, fmri_v220180219183556, 60, Wed Feb 21 2018 18:41:03 GMT-0800 (PST), stroop, 60
, , , , , , , , , , 0, -1, -1, 0, 2000, 16, 1, 0, 0.01778279410038923, 0.01778279410038923, , 1.87494381435, 49.77999999999997, 49.78399999999999, , 25, 30, 1, , 9, 22.046826503806976, 1, 1, 1, 1.10300777516, 35, Why open a magazine?,  Read articles., 1, 49.77599999999998, 49.77799999999999, 0, 15, 15, 15, 2000, 1, 1, 0.01, fmri_v220180219183556, 60, Wed Feb 21 2018 18:41:03 GMT-0800 (PST), stroop, 60
, , , , , , , , , , 0, -1, -1, 0, 2000, 17, 1, 0.0010000000000047748, 0.01778279410038923, 0.01778279410038923, , 2.5685593655, 49.78799999999998, 49.78899999999999, , 25, 30, 1, , 6, 18.446826503806978, 1, 1, 1, 2.04980380389, 23, How to achieve success?,  Get a promotion., 6, 49.785, 49.78599999999997, 0, 16, 16, 16, 2000, 1, 1, 0.01, fmri_v220180219183556, 60, Wed Feb 21 2018 18:41:03 GMT-0800 (PST), stroop, 60
, , , , , , , , , , 0, -1, -1, 0, 2000, 18, 2, 0, 0.01778279410038923, 0.01778279410038923, , 1.03581155448, 49.79399999999998, 49.797, , 25, 30, 1, , 1, 12.446826503806978, 1, 1, 1, 1.79475878945, 10, How to avoid mistakes?,  Obey laws., 6, 49.791, 49.79199999999997, 0, 17, 17, 17, 2000, 1, 1, 0.01, fmri_v220180219183556, 60, Wed Feb 21 2018 18:41:03 GMT-0800 (PST), stroop, 60
, , , , , , , , , , 0, -1, -1, 0, 2000, 19, 2, 0.0010000000000047748, 0.01778279410038923, 0.01778279410038923, , 1.03112327012, 49.79899999999998, 49.80099999999999, , 25, 30, 1, , 2, 13.646826503806977, 1, 1, 1, 2.68183503118, 12, How to contact a friend?,  Make a phone call., 5, 49.797, 49.79799999999997, 0, 18, 18, 18, 2000, 1, 1, 0.01, fmri_v220180219183556, 60, Wed Feb 21 2018 18:41:03 GMT-0800 (PST), stroop, 60
, , , , , , , , , , 0, -1, -1, 0, 2000, 20, 2, 0, 0.01778279410038923, 0.01778279410038923, , 1.60464339606, 49.80699999999999, 49.809, , 25, 30, 1, , 5, 17.24682650380699, 1, 1, 1, 1.19620850689, 42, How to get a promotion?,  Arrive on time., 5, 49.80199999999999, 49.803, 0, 19, 19, 19, 2000, 1, 1, 0.01, fmri_v220180219183556, 60, Wed Feb 21 2018 18:41:03 GMT-0800 (PST), stroop, 60
, , , , , , , , , , 0, -1, -1, 0, 2000, 21, 2, 0, 0.01778279410038923, 0.01778279410038923, , 1.86478467062, 49.81099999999998, 49.81299999999999, , 25, 30, 1, , 3, 14.846826503806989, 1, 1, 1, 1.80727434749, 6, How to write a song?,  Play piano., 4, 49.809, 49.809999999999974, 0, 20, 20, 20, 2000, 1, 1, 0.01, fmri_v220180219183556, 60, Wed Feb 21 2018 18:41:03 GMT-0800 (PST), stroop, 60
, , , , , , , , , , 0, -1, -1, 0, 2000, 22, 2, 0, 0.01778279410038923, 0.01778279410038923, , 1.97231945934, 49.81699999999998, 49.81899999999999, , 25, 30, 1, , 4, 16.046826503806976, 1, 1, 1, 1.03676776773, 48, How to give applause?,  Clap hands., 4, 49.81399999999999, 49.815, 0, 21, 21, 21, 2000, 1, 1, 0.01, fmri_v220180219183556, 60, Wed Feb 21 2018 18:41:03 GMT-0800 (PST), stroop, 60
, , , , , , , , , , 0, -1, -1, 0, 2000, 23, 1, 0, 0.01778279410038923, 0.01778279410038923, , 3.46999674659, 49.82299999999998, 49.823999999999984, , 25, 30, 1, , 8, 20.846826503806987, 1, 1, 1, 1.78406375254, 30, Why give a lecture?,  Teach others., 2, 49.81999999999999, 49.821, 0, 22, 22, 22, 2000, 1, 1, 0.01, fmri_v220180219183556, 60, Wed Feb 21 2018 18:41:03 GMT-0800 (PST), stroop, 60
, , , , , , , , , , 0, -1, -1, 0, 2000, 24, 1, 0, 0.01778279410038923, 0.01778279410038923, , 2.34785828636, 49.827, 49.82899999999998, , 25, 30, 1, , 9, 22.046826503806976, 1, 1, 1, 1.27001723341, 43, Why paint a picture?,  Make art., 2, 49.82499999999999, 49.82599999999999, 0, 23, 23, 23, 2000, 1, 1, 0.01, fmri_v220180219183556, 60, Wed Feb 21 2018 18:41:03 GMT-0800 (PST), stroop, 60
, , , , , , , , , , 0, -1, -1, 0, 2000, 25, 1, 0, 0.01778279410038923, 0.01778279410038923, , 1.78957733761, 49.83099999999999, 49.833, , 25, 30, 1, , 8, 20.846826503806987, 1, 1, 1, 1.85034656761, 13, How to make art?,  Paint a picture., 5, 49.829999999999984, 49.829999999999984, 0, 24, 24, 24, 2000, 1, 1, 0.01, fmri_v220180219183556, 60, Wed Feb 21 2018 18:41:03 GMT-0800 (PST), stroop, 60
, , , , , , , , , , 0, -1, -1, 0, 2000, 26, 1, 0, 0.01778279410038923, 0.01778279410038923, , 1.25479366907, 49.83699999999999, 49.837999999999994, , 25, 30, 1, , 2, 13.646826503806977, 1, 1, 1, 2.23249500305, 22, How to attend a school?,  Enter a classroom., 5, 49.833999999999975, 49.83499999999998, 0, 25, 25, 25, 2000, 1, 1, 0.01, fmri_v220180219183556, 60, Wed Feb 21 2018 18:41:03 GMT-0800 (PST), stroop, 60
, , , , , , , , , , 0, -1, -1, 0, 2000, 27, 2, 0, 0.01778279410038923, 0.01778279410038923, , 2.11115753363, 49.84099999999998, 49.841999999999985, , 25, 30, 1, , 9, 22.046826503806976, 1, 1, 1, 1.3854190398, 8, Why use credit cards?,  Go shopping., 1, 49.839, 49.84099999999998, 0, 26, 26, 26, 2000, 1, 1, 0.01, fmri_v220180219183556, 60, Wed Feb 21 2018 18:41:03 GMT-0800 (PST), stroop, 60
, , , , , , , , , , 0, -1, -1, 0, 2000, 28, 2, 0, 0.01778279410038923, 0.01778279410038923, , 2.95757742392, 49.84699999999998, 49.849999999999994, , 25, 30, 1, , 1, 12.446826503806978, 1, 1, 1, 1.96747530482, 34, Why use a remote?,  Watch television., 1, 49.843999999999994, 49.843999999999994, 0, 27, 27, 27, 2000, 1, 1, 0.01, fmri_v220180219183556, 60, Wed Feb 21 2018 18:41:03 GMT-0800 (PST), stroop, 60
, , , , , , , , , , 0, -1, -1, 0, 2000, 29, 2, 0, 0.01778279410038923, 0.01778279410038923, , 2.4401975206, 49.85499999999999, 49.857, , 25, 30, 1, , 6, 18.446826503806978, 1, 1, 1, 1.07762362835, 40, How to satisfy a need?,  Make a purchase., 6, 49.851999999999975, 49.851999999999975, 0, 28, 28, 28, 2000, 1, 1, 0.01, fmri_v220180219183556, 60, Wed Feb 21 2018 18:41:03 GMT-0800 (PST), stroop, 60
, , , , , , , , , , 0, -1, -1, 0, 2000, 30, 1, 0.0010000000000047748, 0.01778279410038923, 0.01778279410038923, , 2.07541150401, 49.859999999999985, 49.861999999999995, , 25, 30, 1, , 4, 16.046826503806976, 1, 1, 1, 2.89977372077, 4, How to express a talent?,  Entertain others., 6, 49.857, 49.857, 0, 29, 29, 29, 2000, 1, 1, 0.01, fmri_v220180219183556, 60, Wed Feb 21 2018 18:41:03 GMT-0800 (PST), stroop, 60
, , , , , , , , , , 0, -1, -1, 0, 2000, 31, 2, 0, 0.01778279410038923, 0.01778279410038923, , 1.65547106168, 49.863999999999976, 49.86699999999999, , 25, 30, 1, , 5, 17.24682650380699, 1, 1, 1, 2.90491499311, 57, How to open a browser?,  Click a mouse., 4, 49.861999999999995, 49.86299999999997, 0, 30, 30, 30, 2000, 1, 1, 0.01, fmri_v220180219183556, 60, Wed Feb 21 2018 18:41:03 GMT-0800 (PST), stroop, 60
, , , , , , , , , , 0, -1, -1, 0, 2000, 32, 1, 0, 0.01778279410038923, 0.01778279410038923, , 1.20153456362, 49.87099999999998, 49.871999999999986, , 25, 30, 1, , 3, 14.846826503806989, 1, 1, 1, 2.30738312596, 56, How to make a phone call?,  Dial numbers., 4, 49.867999999999995, 49.869999999999976, 0, 31, 31, 31, 2000, 1, 1, 0.01, fmri_v220180219183556, 60, Wed Feb 21 2018 18:41:03 GMT-0800 (PST), stroop, 60
, , , , , , , , , , 0, -1, -1, 0, 2000, 33, 2, 0, 0.01778279410038923, 0.01778279410038923, , 1.07715336233, 49.875999999999976, 49.87899999999999, , 25, 30, 1, , 5, 17.24682650380699, 1, 1, 1, 1.88368428635, 58, Why clip coupons?,  Save money., 2, 49.87299999999999, 49.873999999999995, 0, 32, 32, 32, 2000, 1, 1, 0.01, fmri_v220180219183556, 60, Wed Feb 21 2018 18:41:03 GMT-0800 (PST), stroop, 60
, , , , , , , , , , 0, -1, -1, 0, 2000, 34, 1, 0, 0.01778279410038923, 0.01778279410038923, , 1.902036098, 49.88099999999997, 49.88499999999999, , 25, 30, 1, , 9, 22.046826503806976, 1, 1, 1, 1.14245816771, 49, Why open a browser?,  Write an email., 2, 49.87899999999999, 49.879999999999995, 0, 33, 33, 33, 2000, 1, 1, 0.01, fmri_v220180219183556, 60, Wed Feb 21 2018 18:41:03 GMT-0800 (PST), stroop, 60
, , , , , , , , , , 0, -1, -1, 0, 2000, 35, 2, 0, 0.01778279410038923, 0.01778279410038923, , 3.57480686703, 49.88699999999997, 49.88899999999998, , 25, 30, 1, , 3, 14.846826503806989, 1, 1, 1, 3.10716717018, 31, Why build muscles?,  Show humility., 3, 49.885999999999996, 49.885999999999996, 0, 34, 34, 34, 2000, 1, 1, 0.01, fmri_v220180219183556, 60, Wed Feb 21 2018 18:41:03 GMT-0800 (PST), stroop, 60
, , , , , , , , , , 0, -1, -1, 0, 2000, 36, 1, 0, 0.01778279410038923, 0.01778279410038923, , 1.74527248203, 49.891999999999996, 49.89299999999997, , 25, 30, 1, , 1, 12.446826503806978, 1, 1, 1, 1.4775185621, 5, Why gain knowledge?,  Improve oneself., 3, 49.88899999999998, 49.889999999999986, 0, 35, 35, 35, 2000, 1, 1, 0.01, fmri_v220180219183556, 60, Wed Feb 21 2018 18:41:03 GMT-0800 (PST), stroop, 60
, , , , , , , , , , 0, -1, -1, 0, 2000, 37, 1, 0, 0.01778279410038923, 0.01778279410038923, , 1.68454304779, 49.897999999999996, 49.89999999999998, , 25, 30, 1, , 4, 16.046826503806976, 1, 1, 1, 4.91978286587, 25, Why provide food?,  Help a person., 3, 49.89399999999998, 49.89699999999999, 0, 36, 36, 36, 2000, 1, 1, 0.01, fmri_v220180219183556, 60, Wed Feb 21 2018 18:41:03 GMT-0800 (PST), stroop, 60
, , , , , , , , , , 0, -1, -1, 0, 2000, 38, 2, 0, 0.01778279410038923, 0.01778279410038923, , 2.08917815069, 49.903999999999996, 49.90799999999999, , 25, 30, 1, , 8, 20.846826503806987, 1, 1, 1, 1.12802962431, 54, Why show competence?,  Pass the time., 3, 49.90099999999998, 49.90199999999999, 0, 37, 37, 37, 2000, 1, 1, 0.01, fmri_v220180219183556, 60, Wed Feb 21 2018 18:41:03 GMT-0800 (PST), stroop, 60
, , , , , , , , , , 0, -1, -1, 0, 2000, 39, 1, 0, 0.01778279410038923, 0.01778279410038923, , 2.8542756704, 49.91, 49.91099999999997, , 25, 30, 1, , 7, 19.646826503806977, 1, 1, 1, 1.40811786158, 37, How to avoid diseases?,  Kill germs., 5, 49.90799999999999, 49.90899999999999, 0, 38, 38, 38, 2000, 1, 1, 0.01, fmri_v220180219183556, 60, Wed Feb 21 2018 18:41:03 GMT-0800 (PST), stroop, 60
, , , , , , , , , , 0, -1, -1, 0, 2000, 40, 2, 0, 0.01778279410038923, 0.01778279410038923, , 2.4373137281, 49.91499999999999, 49.916, , 25, 30, 1, , 6, 18.446826503806978, 1, 1, 1, 1.21018674318, 16, How to provide food?,  Prepare meals., 5, 49.91299999999998, 49.91399999999999, 0, 39, 39, 39, 2000, 1, 1, 0.01, fmri_v220180219183556, 60, Wed Feb 21 2018 18:41:03 GMT-0800 (PST), stroop, 60
, , , , , , , , , , 0, -1, -1, 0, 2000, 41, 1, 0, 0.01778279410038923, 0.01778279410038923, , 1.03953366771, 49.91799999999998, 49.91899999999998, , 25, 30, 1, , 3, 14.846826503806989, 1, 1, 1, 1.90841479532, 59, Why go shopping?,  Make a purchase., 2, 49.916, 49.91699999999997, 0, 40, 40, 40, 2000, 1, 1, 0.01, fmri_v220180219183556, 60, Wed Feb 21 2018 18:41:03 GMT-0800 (PST), stroop, 60
, , , , , , , , , , 0, -1, -1, 0, 2000, 42, 2, 0, 0.01778279410038923, 0.01778279410038923, , 2.14024394299, 49.922, 49.92299999999997, , 25, 30, 1, , 8, 20.846826503806987, 1, 1, 1, 1.85273328791, 24, Why write a song?,  Seek advice., 2, 49.91999999999999, 49.92099999999999, 0, 41, 41, 41, 2000, 1, 1, 0.01, fmri_v220180219183556, 60, Wed Feb 21 2018 18:41:03 GMT-0800 (PST), stroop, 60
, , , , , , , , , , 0, -1, -1, 0, 2000, 43, 1, 0.0010000000000047748, 0.01778279410038923, 0.01778279410038923, , 1.5155090027, 49.92499999999998, 49.92699999999999, , 25, 30, 1, , 6, 18.446826503806978, 1, 1, 1, 1.38474010867, 33, Why use a brush?,  Paint a picture., 1, 49.92399999999998, 49.92399999999998, 0, 42, 42, 42, 2000, 1, 1, 0.01, fmri_v220180219183556, 60, Wed Feb 21 2018 18:41:03 GMT-0800 (PST), stroop, 60
, , , , , , , , , , 0, -1, -1, 0, 2000, 44, 2, 0, 0.01778279410038923, 0.01778279410038923, , 2.53654010349, 49.928, 49.92999999999998, , 25, 30, 1, , 9, 22.046826503806976, 1, 1, 1, 3.12261389386, 50, Why follow recipes?,  Prepare meals., 1, 49.928, 49.928, 0, 43, 43, 43, 2000, 1, 1, 0.01, fmri_v220180219183556, 60, Wed Feb 21 2018 18:41:03 GMT-0800 (PST), stroop, 60
, , , , , , , , , , 0, -1, -1, 0, 2000, 45, 2, 0, 0.01778279410038923, 0.01778279410038923, , 2.68819971102, 49.93199999999999, 49.93299999999999, , 25, 30, 1, , 4, 16.046826503806976, 1, 1, 1, 1.46861760972, 17, How to feel sociable?,  Hold a party., 6, 49.92999999999998, 49.92999999999998, 0, 44, 44, 44, 2000, 1, 1, 0.01, fmri_v220180219183556, 60, Wed Feb 21 2018 18:41:03 GMT-0800 (PST), stroop, 60
, , , , , , , , , , 0, -1, -1, 0, 2000, 46, 2, 0, 0.01778279410038923, 0.01778279410038923, , 1.31291611931, 49.934999999999974, 49.93599999999998, , 25, 30, 1, , 7, 19.646826503806977, 1, 1, 1, 1.99139253335, 29, How to show cleanliness?,  Write an email., 6, 49.93299999999999, 49.934, 0, 45, 45, 45, 2000, 1, 1, 0.01, fmri_v220180219183556, 60, Wed Feb 21 2018 18:41:03 GMT-0800 (PST), stroop, 60
, , , , , , , , , , 0, -1, -1, 0, 2000, 47, 1, 0, 0.01778279410038923, 0.01778279410038923, , 2.29387696997, 49.93799999999999, 49.94, , 25, 30, 1, , 5, 17.24682650380699, 1, 1, 1, 1.80338688034, 38, How to consume medicine?,  Take pills. , 4, 49.93699999999998, 49.93699999999998, 0, 46, 46, 46, 2000, 1, 1, 0.01, fmri_v220180219183556, 60, Wed Feb 21 2018 18:41:03 GMT-0800 (PST), stroop, 60
, , , , , , , , , , 0, -1, -1, 0, 2000, 48, 1, 0.0010000000000047748, 0.01778279410038923, 0.01778279410038923, , 1.49038831523, 49.942999999999984, 49.94399999999999, , 25, 30, 1, , 1, 12.446826503806978, 1, 1, 1, 1.02862906434, 39, How to dress formally?,  Wear ties. , 4, 49.940999999999974, 49.94199999999998, 0, 47, 47, 47, 2000, 1, 1, 0.01, fmri_v220180219183556, 60, Wed Feb 21 2018 18:41:03 GMT-0800 (PST), stroop, 60
, , , , , , , , , , 0, -1, -1, 0, 2000, 49, 2, 0, 0.01778279410038923, 0.01778279410038923, , 1.71358140518, 49.946, 49.946999999999974, , 25, 30, 1, , 7, 19.646826503806977, 1, 1, 1, 2.6513409533, 9, Why give to charity?,  Support a cause., 3, 49.94499999999999, 49.946, 0, 48, 48, 48, 2000, 1, 1, 0.01, fmri_v220180219183556, 60, Wed Feb 21 2018 18:41:03 GMT-0800 (PST), stroop, 60
, , , , , , , , , , 0, -1, -1, 0, 2000, 50, 2, 0.0010000000000047748, 0.01778279410038923, 0.01778279410038923, , 1.86789966369, 49.952, 49.95399999999998, , 25, 30, 1, , 6, 18.446826503806978, 1, 1, 1, 1.05310775405, 44, Why show appreciation?,  Spread joy., 3, 49.94799999999998, 49.948999999999984, 0, 49, 49, 49, 2000, 1, 1, 0.01, fmri_v220180219183556, 60, Wed Feb 21 2018 18:41:03 GMT-0800 (PST), stroop, 60
, , , , , , , , , , 0, -1, -1, 0, 2000, 51, 2, 0, 0.01778279410038923, 0.01778279410038923, , 3.9541802598, 49.95599999999999, 49.956999999999994, , 25, 30, 1, , 3, 14.846826503806989, 1, 1, 1, 1.88817616701, 1, How to show appreciation?,  Give applause., 5, 49.954999999999984, 49.954999999999984, 0, 50, 50, 50, 2000, 1, 1, 0.01, fmri_v220180219183556, 60, Wed Feb 21 2018 18:41:03 GMT-0800 (PST), stroop, 60
, , , , , , , , , , 0, -1, -1, 0, 2000, 52, 1, 0.0009999999999763531, 0.01778279410038923, 0.01778279410038923, , 1.60797874523, 49.958999999999975, 49.958999999999975, , 25, 30, 1, , 2, 13.646826503806977, 1, 1, 1, 3.33654899676, 21, How to express doubt?,  Use scissors., 5, 49.958, 49.958, 0, 51, 51, 51, 2000, 1, 1, 0.01, fmri_v220180219183556, 60, Wed Feb 21 2018 18:41:03 GMT-0800 (PST), stroop, 60
, , , , , , , , , , 0, -1, -1, 0, 2000, 53, 1, 0, 0.01778279410038923, 0.01778279410038923, , 1.64003449034, 49.95999999999998, 49.960999999999984, , 25, 30, 1, , 8, 20.846826503806987, 1, 1, 1, 1.7830036391, 15, How to paint a picture?,  Use a brush., 4, 49.958999999999975, 49.95999999999998, 0, 52, 52, 52, 2000, 1, 1, 0.01, fmri_v220180219183556, 60, Wed Feb 21 2018 18:41:03 GMT-0800 (PST), stroop, 60
, , , , , , , , , , 0, -1, -1, 0, 2000, 54, 1, 0, 0.01778279410038923, 0.01778279410038923, , 1.92598480374, 49.96199999999999, 49.964, , 25, 30, 1, , 9, 22.046826503806976, 1, 1, 1, 1.49163302789, 55, How to drink wine?,  Open a bottle. , 4, 49.96199999999999, 49.96199999999999, 0, 53, 53, 53, 2000, 1, 1, 0.01, fmri_v220180219183556, 60, Wed Feb 21 2018 18:41:03 GMT-0800 (PST), stroop, 60
, , , , , , , , , , 0, -1, -1, 0, 2000, 55, 2, 0.0010000000000047748, 0.01778279410038923, 0.01778279410038923, , 1.18460529027, 49.96599999999998, 49.966999999999985, , 25, 30, 1, , 5, 17.24682650380699, 1, 1, 1, 1.65077873844, 26, Why clap hands?,  Give applause., 1, 49.964, 49.964999999999975, 0, 54, 54, 54, 2000, 1, 1, 0.01, fmri_v220180219183556, 60, Wed Feb 21 2018 18:41:03 GMT-0800 (PST), stroop, 60
, , , , , , , , , , 0, -1, -1, 0, 2000, 56, 1, 0, 0.01778279410038923, 0.01778279410038923, , 1.46616568875, 49.968999999999994, 49.970999999999975, , 25, 30, 1, , 1, 12.446826503806978, 1, 1, 1, 1.10385460874, 51, Why use chalk?,  Get fit., 1, 49.96799999999999, 49.96799999999999, 0, 55, 55, 55, 2000, 1, 1, 0.01, fmri_v220180219183556, 60, Wed Feb 21 2018 18:41:03 GMT-0800 (PST), stroop, 60
, , , , , , , , , , 0, -1, -1, 0, 2000, 57, 1, 0.0010000000000047748, 0.01778279410038923, 0.01778279410038923, , 3.23597943714, 49.972999999999985, 49.97399999999999, , 25, 30, 1, , 6, 18.446826503806978, 1, 1, 1, 3.37905604909, 14, Why kill germs?,  Avoid diseases., 2, 49.97199999999998, 49.97199999999998, 0, 56, 56, 56, 2000, 1, 1, 0.01, fmri_v220180219183556, 60, Wed Feb 21 2018 18:41:03 GMT-0800 (PST), stroop, 60
, , , , , , , , , , 0, -1, -1, 0, 2000, 58, 2, 0, 0.01778279410038923, 0.01778279410038923, , 1.63405092229, 49.976, 49.976999999999975, , 25, 30, 1, , 1, 12.446826503806978, 1, 1, 1, 1.23600221442, 11, Why consume medicine?,  Reduce pain., 2, 49.974999999999994, 49.974999999999994, 0, 57, 57, 57, 2000, 1, 1, 0.01, fmri_v220180219183556, 60, Wed Feb 21 2018 18:41:03 GMT-0800 (PST), stroop, 60
, , , , , , , , , , 0, -1, -1, 0, 2000, 59, 2, 0, 0.01778279410038923, 0.01778279410038923, , 1.42796251117, 49.97999999999999, 50.04599999999999, , 25, 30, 1, , 5, 17.24682650380699, 1, 1, 1, 1.4321039969, 7, How to get a degree?,  Attend a school., 6, 49.97799999999998, 49.978999999999985, 0, 58, 58, 58, 2000, 1, 1, 0.01, fmri_v220180219183556, 60, Wed Feb 21 2018 18:41:03 GMT-0800 (PST), stroop, 60
, , , , , , , , , , 0, -1, -1, 0, 2000, 60, 1, 0, 0.01778279410038923, 0.01778279410038923, , 2.20893094768, 50.04799999999997, 50.04899999999998, , 25, 30, 1, , 9, 22.046826503806976, 1, 1, 1, 4.61563859956, 18, How to live a long life?,  Avoid diseases., 6, 50.047, 50.047, 0, 59, 59, 59, 2000, 1, 1, 0.01, fmri_v220180219183556, 60, Wed Feb 21 2018 18:41:03 GMT-0800 (PST), stroop, 60
