resp_fMRI.keys, resp_fMRI.rt, construal_resp.keys, construal_resp.rt, resp_trial.keys, resp_trial.rt, instructionLoop.thisRepN, instructionLoop.thisTrialN, instructionLoop.thisN, instructionLoop.thisIndex, blocks.thisRepN, blocks.thisTrialN, blocks.thisN, blocks.thisIndex, Subject, Trial, SSonLorR, RT, startingK, endingK, TrialStart, ITI, choiceUp, choiceMade, TrialOver, SSamount, LLamount, Condition, Choice, SSdelay, LLdelay, salienceCondition, day, runid, TaskInterval, RewardTrialRanked, Construal_QuestionText, Construal_AnswerText, Construal_Condition, construal_trialUp, construal_trialComplete, trials_set1.thisRepN, trials_set1.thisTrialN, trials_set1.thisN, trials_set1.thisIndex, participant, session, run, k_val, designDir, total_time_limit, date, expName, frameRate, finish_screen_end_response.keys, finish_screen_end_response.rt, instructionLoop.thisRepN, instructionLoop.thisTrialN, instructionLoop.thisN, instructionLoop.thisIndex, blocks.thisRepN, blocks.thisTrialN, blocks.thisN, blocks.thisIndex, Subject, Trial, SSonLorR, RT, startingK, endingK, TrialStart, ITI, choiceUp, choiceMade, TrialOver, SSamount, LLamount, Condition, Choice, SSdelay, LLdelay, salienceCondition, day, runid, TaskInterval, RewardTrialRanked, Construal_QuestionText, Construal_AnswerText, Construal_Condition, construal_trialUp, construal_trialComplete, trials_set1.thisRepN, trials_set1.thisTrialN, trials_set1.thisN, trials_set1.thisIndex, participant, session, run, k_val, designDir, total_time_limit, date, expName, frameRate
5, 1.579999999999984, 1, 0.49800000000001887, , , , , , , 0, -1, -1, 0, 2000, 1, R, 0.5279999999999916, 0.01, 0.01333521432163324, , 1.1039073215, 15.013000000000005, 15.540999999999997, , 25, 30, 1, SS, 5, 26, 1, 1, 1, 1.34502269476, 3, How to entertain oneself?,  Watch television., 5, 11.643, 13.89500000000001, 0, 0, 0, 0, 2000, 1, 1, 0.01, fmri_v320180222085601, 40, Thu Feb 22 2018 13:49:35 GMT-0800 (PST), stroop, 60, , , , , , , 0, -1, -1, 0, 2000, 1, R, 0.5279999999999916, 0.01, 0.01333521432163324, , 1.1039073215, 15.013000000000005, 15.540999999999997, , 25, 30, 1, SS, 5, 26, 1, 1, 1, 1.34502269476, 3, How to entertain oneself?,  Watch television., 5, 11.643, 13.89500000000001, 0, 0, 0, 0, 2000, 1, 1, 0.01, fmri_v320180222085601, 40, Thu Feb 22 2018 13:49:35 GMT-0800 (PST), stroop, 60
, , 1, 0.45000000000001705, , , , , , , 0, -1, -1, 0, 2000, 2, L, 0.4849999999999852, 0.01333521432163324, 0.01, , 1.07871365773, 20.926000000000016, 21.409999999999997, , 25, 30, 1, LL, 1, 16.197884186649116, 1, 1, 1, 2.38327980452, 28, How to provide food?,  Prepare meals., 5, 17.640000000000015, 19.842000000000013, 0, 1, 1, 1, 2000, 1, 1, 0.01, fmri_v320180222085601, 40, Thu Feb 22 2018 13:49:35 GMT-0800 (PST), stroop, 60, , , , , , , 0, -1, -1, 0, 2000, 2, L, 0.4849999999999852, 0.01333521432163324, 0.01, , 1.07871365773, 20.926000000000016, 21.409999999999997, , 25, 30, 1, LL, 1, 16.197884186649116, 1, 1, 1, 2.38327980452, 28, How to provide food?,  Prepare meals., 5, 17.640000000000015, 19.842000000000013, 0, 1, 1, 1, 2000, 1, 1, 0.01, fmri_v320180222085601, 40, Thu Feb 22 2018 13:49:35 GMT-0800 (PST), stroop, 60
, , 1, 0.3830000000000098, , , , , , , 0, -1, -1, 0, 2000, 3, L, 1.9379999999999882, 0.01, 0.01333521432163324, , 1.95895897411, 28.491000000000014, 30.429000000000002, , 25, 30, 1, SS, 4, 24.8, 1, 1, 1, 1.88003985742, 2, How to give applause?,  Clap hands., 4, 24.37899999999999, 26.521000000000015, 0, 2, 2, 2, 2000, 1, 1, 0.01, fmri_v320180222085601, 40, Thu Feb 22 2018 13:49:35 GMT-0800 (PST), stroop, 60, , , , , , , 0, -1, -1, 0, 2000, 3, L, 1.9379999999999882, 0.01, 0.01333521432163324, , 1.95895897411, 28.491000000000014, 30.429000000000002, , 25, 30, 1, SS, 4, 24.8, 1, 1, 1, 1.88003985742, 2, How to give applause?,  Clap hands., 4, 24.37899999999999, 26.521000000000015, 0, 2, 2, 2, 2000, 1, 1, 0.01, fmri_v320180222085601, 40, Thu Feb 22 2018 13:49:35 GMT-0800 (PST), stroop, 60
, , , , , , , , , , 0, -1, -1, 0, 2000, 4, L, 0, 0.01333521432163324, 0.01333521432163324, , 2.21451099245, 31.449000000000012, 31.449000000000012, , 25, 30, 1, , 7, 23.39788418664912, 1, 1, 1, 1.8811858104, 53, How to kill germs?,  Wash ones hands., 4, 31.444999999999993, 31.448000000000008, 0, 3, 3, 3, 2000, 1, 1, 0.01, fmri_v320180222085601, 40, Thu Feb 22 2018 13:49:35 GMT-0800 (PST), stroop, 60, , , , , , , 0, -1, -1, 0, 2000, 4, L, 0, 0.01333521432163324, 0.01333521432163324, , 2.21451099245, 31.449000000000012, 31.449000000000012, , 25, 30, 1, , 7, 23.39788418664912, 1, 1, 1, 1.8811858104, 53, How to kill germs?,  Wash ones hands., 4, 31.444999999999993, 31.448000000000008, 0, 3, 3, 3, 2000, 1, 1, 0.01, fmri_v320180222085601, 40, Thu Feb 22 2018 13:49:35 GMT-0800 (PST), stroop, 60
, , , , , , , , , , 0, -1, -1, 0, 2000, 5, L, 0, 0.01333521432163324, 0.01333521432163324, , 1.24559281856, 31.451999999999998, 31.454000000000008, , 25, 30, 1, , 3, 18.59788418664912, 1, 1, 1, 1.03997512188, 32, How to feel secure?,  Save money., 6, 31.450999999999993, 31.450999999999993, 0, 4, 4, 4, 2000, 1, 1, 0.01, fmri_v320180222085601, 40, Thu Feb 22 2018 13:49:35 GMT-0800 (PST), stroop, 60, , , , , , , 0, -1, -1, 0, 2000, 5, L, 0, 0.01333521432163324, 0.01333521432163324, , 1.24559281856, 31.451999999999998, 31.454000000000008, , 25, 30, 1, , 3, 18.59788418664912, 1, 1, 1, 1.03997512188, 32, How to feel secure?,  Save money., 6, 31.450999999999993, 31.450999999999993, 0, 4, 4, 4, 2000, 1, 1, 0.01, fmri_v320180222085601, 40, Thu Feb 22 2018 13:49:35 GMT-0800 (PST), stroop, 60
, , , , , , , , , , 0, -1, -1, 0, 2000, 6, L, 0, 0.01333521432163324, 0.01333521432163324, , 2.88357426458, 31.458, 31.459000000000003, , 25, 30, 1, , 6, 22.197884186649116, 1, 1, 1, 5.46168450577, 20, How to show cleanliness?,  Write an email., 6, 31.455000000000013, 31.456000000000017, 0, 5, 5, 5, 2000, 1, 1, 0.01, fmri_v320180222085601, 40, Thu Feb 22 2018 13:49:35 GMT-0800 (PST), stroop, 60, , , , , , , 0, -1, -1, 0, 2000, 6, L, 0, 0.01333521432163324, 0.01333521432163324, , 2.88357426458, 31.458, 31.459000000000003, , 25, 30, 1, , 6, 22.197884186649116, 1, 1, 1, 5.46168450577, 20, How to show cleanliness?,  Write an email., 6, 31.455000000000013, 31.456000000000017, 0, 5, 5, 5, 2000, 1, 1, 0.01, fmri_v320180222085601, 40, Thu Feb 22 2018 13:49:35 GMT-0800 (PST), stroop, 60
, , , , , , , , , , 0, -1, -1, 0, 2000, 7, R, 0, 0.01333521432163324, 0.01333521432163324, , 1.70888830416, 31.462000000000018, 31.464, , 25, 30, 1, , 9, 25.79788418664911, 1, 1, 1, 1.21639389138, 19, Why write an email?,  Send a message., 3, 31.460000000000008, 31.461000000000013, 0, 6, 6, 6, 2000, 1, 1, 0.01, fmri_v320180222085601, 40, Thu Feb 22 2018 13:49:35 GMT-0800 (PST), stroop, 60, , , , , , , 0, -1, -1, 0, 2000, 7, R, 0, 0.01333521432163324, 0.01333521432163324, , 1.70888830416, 31.462000000000018, 31.464, , 25, 30, 1, , 9, 25.79788418664911, 1, 1, 1, 1.21639389138, 19, Why write an email?,  Send a message., 3, 31.460000000000008, 31.461000000000013, 0, 6, 6, 6, 2000, 1, 1, 0.01, fmri_v320180222085601, 40, Thu Feb 22 2018 13:49:35 GMT-0800 (PST), stroop, 60
, , , , , , , , , , 0, -1, -1, 0, 2000, 8, L, 0, 0.01333521432163324, 0.01333521432163324, , 2.10363239445, 31.467000000000013, 31.468000000000018, , 25, 30, 1, , 8, 24.597884186649107, 1, 1, 1, 1.29616920219, 52, Why attend a school?,  Get a degree., 3, 31.465000000000003, 31.465000000000003, 0, 7, 7, 7, 2000, 1, 1, 0.01, fmri_v320180222085601, 40, Thu Feb 22 2018 13:49:35 GMT-0800 (PST), stroop, 60, , , , , , , 0, -1, -1, 0, 2000, 8, L, 0, 0.01333521432163324, 0.01333521432163324, , 2.10363239445, 31.467000000000013, 31.468000000000018, , 25, 30, 1, , 8, 24.597884186649107, 1, 1, 1, 1.29616920219, 52, Why attend a school?,  Get a degree., 3, 31.465000000000003, 31.465000000000003, 0, 7, 7, 7, 2000, 1, 1, 0.01, fmri_v320180222085601, 40, Thu Feb 22 2018 13:49:35 GMT-0800 (PST), stroop, 60
, , , , , , , , , , 0, -1, -1, 0, 2000, 9, R, 0, 0.01333521432163324, 0.01333521432163324, , 1.48126731675, 31.47, 31.471000000000004, , 25, 30, 1, , 2, 17.397884186649105, 1, 1, 1, 1.73128069861, 27, Why throw away trash?,  Make a list., 1, 31.468999999999994, 31.468999999999994, 0, 8, 8, 8, 2000, 1, 1, 0.01, fmri_v320180222085601, 40, Thu Feb 22 2018 13:49:35 GMT-0800 (PST), stroop, 60, , , , , , , 0, -1, -1, 0, 2000, 9, R, 0, 0.01333521432163324, 0.01333521432163324, , 1.48126731675, 31.47, 31.471000000000004, , 25, 30, 1, , 2, 17.397884186649105, 1, 1, 1, 1.73128069861, 27, Why throw away trash?,  Make a list., 1, 31.468999999999994, 31.468999999999994, 0, 8, 8, 8, 2000, 1, 1, 0.01, fmri_v320180222085601, 40, Thu Feb 22 2018 13:49:35 GMT-0800 (PST), stroop, 60
, , , , , , , , , , 0, -1, -1, 0, 2000, 10, L, 0, 0.01333521432163324, 0.01333521432163324, , 1.33590290044, 31.473000000000013, 31.477000000000004, , 25, 30, 1, , 8, 24.597884186649107, 1, 1, 1, 2.38766705377, 46, Why sign ones name?,  Write a check., 1, 31.47200000000001, 31.47200000000001, 0, 9, 9, 9, 2000, 1, 1, 0.01, fmri_v320180222085601, 40, Thu Feb 22 2018 13:49:35 GMT-0800 (PST), stroop, 60, , , , , , , 0, -1, -1, 0, 2000, 10, L, 0, 0.01333521432163324, 0.01333521432163324, , 1.33590290044, 31.473000000000013, 31.477000000000004, , 25, 30, 1, , 8, 24.597884186649107, 1, 1, 1, 2.38766705377, 46, Why sign ones name?,  Write a check., 1, 31.47200000000001, 31.47200000000001, 0, 9, 9, 9, 2000, 1, 1, 0.01, fmri_v320180222085601, 40, Thu Feb 22 2018 13:49:35 GMT-0800 (PST), stroop, 60
, , , , , , , , , , 0, -1, -1, 0, 2000, 11, R, 0.0010000000000047748, 0.01333521432163324, 0.01333521432163324, , 2.81144621883, 31.479000000000013, 31.48400000000001, , 25, 30, 1, , 4, 19.797884186649128, 1, 1, 1, 4.66026696524, 45, Why give applause?,  Show appreciation., 2, 31.47800000000001, 31.47800000000001, 0, 10, 10, 10, 2000, 1, 1, 0.01, fmri_v320180222085601, 40, Thu Feb 22 2018 13:49:35 GMT-0800 (PST), stroop, 60, , , , , , , 0, -1, -1, 0, 2000, 11, R, 0.0010000000000047748, 0.01333521432163324, 0.01333521432163324, , 2.81144621883, 31.479000000000013, 31.48400000000001, , 25, 30, 1, , 4, 19.797884186649128, 1, 1, 1, 4.66026696524, 45, Why give applause?,  Show appreciation., 2, 31.47800000000001, 31.47800000000001, 0, 10, 10, 10, 2000, 1, 1, 0.01, fmri_v320180222085601, 40, Thu Feb 22 2018 13:49:35 GMT-0800 (PST), stroop, 60
, , , , , , , , , , 0, -1, -1, 0, 2000, 12, R, 0, 0.01333521432163324, 0.01333521432163324, , 2.01322389212, 31.486999999999995, 31.49000000000001, , 25, 30, 1, , 6, 22.197884186649116, 1, 1, 1, 2.3640810896, 36, Why make a list?,  Plan ahead., 2, 31.48400000000001, 31.48599999999999, 0, 11, 11, 11, 2000, 1, 1, 0.01, fmri_v320180222085601, 40, Thu Feb 22 2018 13:49:35 GMT-0800 (PST), stroop, 60, , , , , , , 0, -1, -1, 0, 2000, 12, R, 0, 0.01333521432163324, 0.01333521432163324, , 2.01322389212, 31.486999999999995, 31.49000000000001, , 25, 30, 1, , 6, 22.197884186649116, 1, 1, 1, 2.3640810896, 36, Why make a list?,  Plan ahead., 2, 31.48400000000001, 31.48599999999999, 0, 11, 11, 11, 2000, 1, 1, 0.01, fmri_v320180222085601, 40, Thu Feb 22 2018 13:49:35 GMT-0800 (PST), stroop, 60
, , , , , , , , , , 0, -1, -1, 0, 2000, 13, R, 0, 0.01333521432163324, 0.01333521432163324, , 3.22837113602, 31.498999999999995, 31.501000000000005, , 25, 30, 1, , 7, 23.39788418664912, 1, 1, 1, 3.10316060392, 47, Why reduce pain?,  Feel well., 3, 31.494, 31.49600000000001, 0, 12, 12, 12, 2000, 1, 1, 0.01, fmri_v320180222085601, 40, Thu Feb 22 2018 13:49:35 GMT-0800 (PST), stroop, 60, , , , , , , 0, -1, -1, 0, 2000, 13, R, 0, 0.01333521432163324, 0.01333521432163324, , 3.22837113602, 31.498999999999995, 31.501000000000005, , 25, 30, 1, , 7, 23.39788418664912, 1, 1, 1, 3.10316060392, 47, Why reduce pain?,  Feel well., 3, 31.494, 31.49600000000001, 0, 12, 12, 12, 2000, 1, 1, 0.01, fmri_v320180222085601, 40, Thu Feb 22 2018 13:49:35 GMT-0800 (PST), stroop, 60
, , , , , , , , , , 0, -1, -1, 0, 2000, 14, L, 0, 0.01333521432163324, 0.01333521432163324, , 3.59491196764, 31.509000000000015, 31.53, , 25, 30, 1, , 1, 16.197884186649116, 1, 1, 1, 1.16103088301, 41, Why satisfy hunger?,  Show an ability., 3, 31.501000000000005, 31.50399999999999, 0, 13, 13, 13, 2000, 1, 1, 0.01, fmri_v320180222085601, 40, Thu Feb 22 2018 13:49:35 GMT-0800 (PST), stroop, 60, , , , , , , 0, -1, -1, 0, 2000, 14, L, 0, 0.01333521432163324, 0.01333521432163324, , 3.59491196764, 31.509000000000015, 31.53, , 25, 30, 1, , 1, 16.197884186649116, 1, 1, 1, 1.16103088301, 41, Why satisfy hunger?,  Show an ability., 3, 31.501000000000005, 31.50399999999999, 0, 13, 13, 13, 2000, 1, 1, 0.01, fmri_v320180222085601, 40, Thu Feb 22 2018 13:49:35 GMT-0800 (PST), stroop, 60
, , , , , , , , , , 0, -1, -1, 0, 2000, 15, R, 0, 0.01333521432163324, 0.01333521432163324, , 1.19356770194, 31.54400000000001, 31.555000000000007, , 25, 30, 1, , 3, 18.59788418664912, 1, 1, 1, 1.08494564473, 0, Why cut paper?,  Clip coupons., 1, 31.53200000000001, 31.534999999999997, 0, 14, 14, 14, 2000, 1, 1, 0.01, fmri_v320180222085601, 40, Thu Feb 22 2018 13:49:35 GMT-0800 (PST), stroop, 60, , , , , , , 0, -1, -1, 0, 2000, 15, R, 0, 0.01333521432163324, 0.01333521432163324, , 1.19356770194, 31.54400000000001, 31.555000000000007, , 25, 30, 1, , 3, 18.59788418664912, 1, 1, 1, 1.08494564473, 0, Why cut paper?,  Clip coupons., 1, 31.53200000000001, 31.534999999999997, 0, 14, 14, 14, 2000, 1, 1, 0.01, fmri_v320180222085601, 40, Thu Feb 22 2018 13:49:35 GMT-0800 (PST), stroop, 60
, , , , , , , , , , 0, -1, -1, 0, 2000, 16, L, 0, 0.01333521432163324, 0.01333521432163324, , 1.87494381435, 31.570999999999998, 31.578000000000003, , 25, 30, 1, , 9, 25.79788418664911, 1, 1, 1, 1.10300777516, 35, Why follow recipes?,  Prepare meals., 1, 31.557000000000016, 31.569000000000017, 0, 15, 15, 15, 2000, 1, 1, 0.01, fmri_v320180222085601, 40, Thu Feb 22 2018 13:49:35 GMT-0800 (PST), stroop, 60, , , , , , , 0, -1, -1, 0, 2000, 16, L, 0, 0.01333521432163324, 0.01333521432163324, , 1.87494381435, 31.570999999999998, 31.578000000000003, , 25, 30, 1, , 9, 25.79788418664911, 1, 1, 1, 1.10300777516, 35, Why follow recipes?,  Prepare meals., 1, 31.557000000000016, 31.569000000000017, 0, 15, 15, 15, 2000, 1, 1, 0.01, fmri_v320180222085601, 40, Thu Feb 22 2018 13:49:35 GMT-0800 (PST), stroop, 60
, , , , , , , , , , 0, -1, -1, 0, 2000, 17, L, 0, 0.01333521432163324, 0.01333521432163324, , 2.5685593655, 31.583, 31.584000000000003, , 25, 30, 1, , 6, 22.197884186649116, 1, 1, 1, 2.04980380389, 23, Why consume caffeine?,  Stay alert., 2, 31.580000000000013, 31.580000000000013, 0, 16, 16, 16, 2000, 1, 1, 0.01, fmri_v320180222085601, 40, Thu Feb 22 2018 13:49:35 GMT-0800 (PST), stroop, 60, , , , , , , 0, -1, -1, 0, 2000, 17, L, 0, 0.01333521432163324, 0.01333521432163324, , 2.5685593655, 31.583, 31.584000000000003, , 25, 30, 1, , 6, 22.197884186649116, 1, 1, 1, 2.04980380389, 23, Why consume caffeine?,  Stay alert., 2, 31.580000000000013, 31.580000000000013, 0, 16, 16, 16, 2000, 1, 1, 0.01, fmri_v320180222085601, 40, Thu Feb 22 2018 13:49:35 GMT-0800 (PST), stroop, 60
, , , , , , , , , , 0, -1, -1, 0, 2000, 18, R, 0, 0.01333521432163324, 0.01333521432163324, , 1.03581155448, 31.590000000000003, 31.593000000000018, , 25, 30, 1, , 1, 16.197884186649116, 1, 1, 1, 1.79475878945, 10, Why consume medicine?,  Reduce pain., 2, 31.585000000000008, 31.586000000000013, 0, 17, 17, 17, 2000, 1, 1, 0.01, fmri_v320180222085601, 40, Thu Feb 22 2018 13:49:35 GMT-0800 (PST), stroop, 60, , , , , , , 0, -1, -1, 0, 2000, 18, R, 0, 0.01333521432163324, 0.01333521432163324, , 1.03581155448, 31.590000000000003, 31.593000000000018, , 25, 30, 1, , 1, 16.197884186649116, 1, 1, 1, 1.79475878945, 10, Why consume medicine?,  Reduce pain., 2, 31.585000000000008, 31.586000000000013, 0, 17, 17, 17, 2000, 1, 1, 0.01, fmri_v320180222085601, 40, Thu Feb 22 2018 13:49:35 GMT-0800 (PST), stroop, 60
, , , , , , , , , , 0, -1, -1, 0, 2000, 19, R, 0, 0.01333521432163324, 0.01333521432163324, , 1.03112327012, 31.596000000000004, 31.601, , 25, 30, 1, , 2, 17.397884186649105, 1, 1, 1, 2.68183503118, 12, How to show intelligence?,  Participate in class., 5, 31.593999999999994, 31.593999999999994, 0, 18, 18, 18, 2000, 1, 1, 0.01, fmri_v320180222085601, 40, Thu Feb 22 2018 13:49:35 GMT-0800 (PST), stroop, 60, , , , , , , 0, -1, -1, 0, 2000, 19, R, 0, 0.01333521432163324, 0.01333521432163324, , 1.03112327012, 31.596000000000004, 31.601, , 25, 30, 1, , 2, 17.397884186649105, 1, 1, 1, 2.68183503118, 12, How to show intelligence?,  Participate in class., 5, 31.593999999999994, 31.593999999999994, 0, 18, 18, 18, 2000, 1, 1, 0.01, fmri_v320180222085601, 40, Thu Feb 22 2018 13:49:35 GMT-0800 (PST), stroop, 60
, , , , , , , , , , 0, -1, -1, 0, 2000, 20, R, 0, 0.01333521432163324, 0.01333521432163324, , 1.60464339606, 31.60300000000001, 31.605999999999995, , 25, 30, 1, , 5, 20.997884186649113, 1, 1, 1, 1.19620850689, 42, How to make art?,  Paint a picture., 5, 31.602000000000004, 31.602000000000004, 0, 19, 19, 19, 2000, 1, 1, 0.01, fmri_v320180222085601, 40, Thu Feb 22 2018 13:49:35 GMT-0800 (PST), stroop, 60, , , , , , , 0, -1, -1, 0, 2000, 20, R, 0, 0.01333521432163324, 0.01333521432163324, , 1.60464339606, 31.60300000000001, 31.605999999999995, , 25, 30, 1, , 5, 20.997884186649113, 1, 1, 1, 1.19620850689, 42, How to make art?,  Paint a picture., 5, 31.602000000000004, 31.602000000000004, 0, 19, 19, 19, 2000, 1, 1, 0.01, fmri_v320180222085601, 40, Thu Feb 22 2018 13:49:35 GMT-0800 (PST), stroop, 60
, , , , , , , , , , 0, -1, -1, 0, 2000, 21, R, 0, 0.01333521432163324, 0.01333521432163324, , 1.86478467062, 31.610000000000014, 31.611999999999995, , 25, 30, 1, , 3, 18.59788418664912, 1, 1, 1, 1.80727434749, 6, How to avoid boredom?,  Entertain oneself., 6, 31.607, 31.60900000000001, 0, 20, 20, 20, 2000, 1, 1, 0.01, fmri_v320180222085601, 40, Thu Feb 22 2018 13:49:35 GMT-0800 (PST), stroop, 60, , , , , , , 0, -1, -1, 0, 2000, 21, R, 0, 0.01333521432163324, 0.01333521432163324, , 1.86478467062, 31.610000000000014, 31.611999999999995, , 25, 30, 1, , 3, 18.59788418664912, 1, 1, 1, 1.80727434749, 6, How to avoid boredom?,  Entertain oneself., 6, 31.607, 31.60900000000001, 0, 20, 20, 20, 2000, 1, 1, 0.01, fmri_v320180222085601, 40, Thu Feb 22 2018 13:49:35 GMT-0800 (PST), stroop, 60
, , , , , , , , , , 0, -1, -1, 0, 2000, 22, R, 0, 0.01333521432163324, 0.01333521432163324, , 1.97231945934, 31.61500000000001, 31.61699999999999, , 25, 30, 1, , 4, 19.797884186649128, 1, 1, 1, 1.03676776773, 48, How to feel well?,  Reduce pain., 6, 31.613, 31.614000000000004, 0, 21, 21, 21, 2000, 1, 1, 0.01, fmri_v320180222085601, 40, Thu Feb 22 2018 13:49:35 GMT-0800 (PST), stroop, 60, , , , , , , 0, -1, -1, 0, 2000, 22, R, 0, 0.01333521432163324, 0.01333521432163324, , 1.97231945934, 31.61500000000001, 31.61699999999999, , 25, 30, 1, , 4, 19.797884186649128, 1, 1, 1, 1.03676776773, 48, How to feel well?,  Reduce pain., 6, 31.613, 31.614000000000004, 0, 21, 21, 21, 2000, 1, 1, 0.01, fmri_v320180222085601, 40, Thu Feb 22 2018 13:49:35 GMT-0800 (PST), stroop, 60
, , , , , , , , , , 0, -1, -1, 0, 2000, 23, L, 0, 0.01333521432163324, 0.01333521432163324, , 3.46999674659, 31.62299999999999, 31.626000000000005, , 25, 30, 1, , 8, 24.597884186649107, 1, 1, 1, 1.78406375254, 30, How to take a picture?,  Point a camera., 4, 31.62100000000001, 31.622000000000014, 0, 22, 22, 22, 2000, 1, 1, 0.01, fmri_v320180222085601, 40, Thu Feb 22 2018 13:49:35 GMT-0800 (PST), stroop, 60, , , , , , , 0, -1, -1, 0, 2000, 23, L, 0, 0.01333521432163324, 0.01333521432163324, , 3.46999674659, 31.62299999999999, 31.626000000000005, , 25, 30, 1, , 8, 24.597884186649107, 1, 1, 1, 1.78406375254, 30, How to take a picture?,  Point a camera., 4, 31.62100000000001, 31.622000000000014, 0, 22, 22, 22, 2000, 1, 1, 0.01, fmri_v320180222085601, 40, Thu Feb 22 2018 13:49:35 GMT-0800 (PST), stroop, 60
, , , , , , , , , , 0, -1, -1, 0, 2000, 24, L, 0, 0.01333521432163324, 0.01333521432163324, , 2.34785828636, 31.634000000000015, 31.637, , 25, 30, 1, , 9, 25.79788418664911, 1, 1, 1, 1.27001723341, 43, How to drink wine?,  Open a bottle. , 4, 31.62700000000001, 31.629999999999995, 0, 23, 23, 23, 2000, 1, 1, 0.01, fmri_v320180222085601, 40, Thu Feb 22 2018 13:49:35 GMT-0800 (PST), stroop, 60, , , , , , , 0, -1, -1, 0, 2000, 24, L, 0, 0.01333521432163324, 0.01333521432163324, , 2.34785828636, 31.634000000000015, 31.637, , 25, 30, 1, , 9, 25.79788418664911, 1, 1, 1, 1.27001723341, 43, How to drink wine?,  Open a bottle. , 4, 31.62700000000001, 31.629999999999995, 0, 23, 23, 23, 2000, 1, 1, 0.01, fmri_v320180222085601, 40, Thu Feb 22 2018 13:49:35 GMT-0800 (PST), stroop, 60
, , , , , , , , , , 0, -1, -1, 0, 2000, 25, L, 0, 0.01333521432163324, 0.01333521432163324, , 1.78957733761, 31.63900000000001, 31.641999999999996, , 25, 30, 1, , 8, 24.597884186649107, 1, 1, 1, 1.85034656761, 13, How to clip coupons?,  Cut paper., 4, 31.637, 31.63900000000001, 0, 24, 24, 24, 2000, 1, 1, 0.01, fmri_v320180222085601, 40, Thu Feb 22 2018 13:49:35 GMT-0800 (PST), stroop, 60, , , , , , , 0, -1, -1, 0, 2000, 25, L, 0, 0.01333521432163324, 0.01333521432163324, , 1.78957733761, 31.63900000000001, 31.641999999999996, , 25, 30, 1, , 8, 24.597884186649107, 1, 1, 1, 1.85034656761, 13, How to clip coupons?,  Cut paper., 4, 31.637, 31.63900000000001, 0, 24, 24, 24, 2000, 1, 1, 0.01, fmri_v320180222085601, 40, Thu Feb 22 2018 13:49:35 GMT-0800 (PST), stroop, 60
, , , , , , , , , , 0, -1, -1, 0, 2000, 26, L, 0, 0.01333521432163324, 0.01333521432163324, , 1.25479366907, 31.64699999999999, 31.649, , 25, 30, 1, , 2, 17.397884186649105, 1, 1, 1, 2.23249500305, 22, How to go shopping?,  Use credit cards., 4, 31.643, 31.64500000000001, 0, 25, 25, 25, 2000, 1, 1, 0.01, fmri_v320180222085601, 40, Thu Feb 22 2018 13:49:35 GMT-0800 (PST), stroop, 60, , , , , , , 0, -1, -1, 0, 2000, 26, L, 0, 0.01333521432163324, 0.01333521432163324, , 1.25479366907, 31.64699999999999, 31.649, , 25, 30, 1, , 2, 17.397884186649105, 1, 1, 1, 2.23249500305, 22, How to go shopping?,  Use credit cards., 4, 31.643, 31.64500000000001, 0, 25, 25, 25, 2000, 1, 1, 0.01, fmri_v320180222085601, 40, Thu Feb 22 2018 13:49:35 GMT-0800 (PST), stroop, 60
, , , , , , , , , , 0, -1, -1, 0, 2000, 27, R, 0, 0.01333521432163324, 0.01333521432163324, , 2.11115753363, 31.65100000000001, 31.652000000000015, , 25, 30, 1, , 9, 25.79788418664911, 1, 1, 1, 1.3854190398, 8, Why show courtesy?,  Make a friend., 3, 31.649, 31.650000000000006, 0, 26, 26, 26, 2000, 1, 1, 0.01, fmri_v320180222085601, 40, Thu Feb 22 2018 13:49:35 GMT-0800 (PST), stroop, 60, , , , , , , 0, -1, -1, 0, 2000, 27, R, 0, 0.01333521432163324, 0.01333521432163324, , 2.11115753363, 31.65100000000001, 31.652000000000015, , 25, 30, 1, , 9, 25.79788418664911, 1, 1, 1, 1.3854190398, 8, Why show courtesy?,  Make a friend., 3, 31.649, 31.650000000000006, 0, 26, 26, 26, 2000, 1, 1, 0.01, fmri_v320180222085601, 40, Thu Feb 22 2018 13:49:35 GMT-0800 (PST), stroop, 60
, , , , , , , , , , 0, -1, -1, 0, 2000, 28, R, 0, 0.01333521432163324, 0.01333521432163324, , 2.95757742392, 31.658000000000015, 31.658000000000015, , 25, 30, 1, , 1, 16.197884186649116, 1, 1, 1, 1.96747530482, 34, Why plan ahead?,  Reduce worry., 3, 31.655, 31.656000000000006, 0, 27, 27, 27, 2000, 1, 1, 0.01, fmri_v320180222085601, 40, Thu Feb 22 2018 13:49:35 GMT-0800 (PST), stroop, 60, , , , , , , 0, -1, -1, 0, 2000, 28, R, 0, 0.01333521432163324, 0.01333521432163324, , 2.95757742392, 31.658000000000015, 31.658000000000015, , 25, 30, 1, , 1, 16.197884186649116, 1, 1, 1, 1.96747530482, 34, Why plan ahead?,  Reduce worry., 3, 31.655, 31.656000000000006, 0, 27, 27, 27, 2000, 1, 1, 0.01, fmri_v320180222085601, 40, Thu Feb 22 2018 13:49:35 GMT-0800 (PST), stroop, 60
, , , , , , , , , , 0, -1, -1, 0, 2000, 29, R, 0, 0.01333521432163324, 0.01333521432163324, , 2.4401975206, 31.664999999999992, 31.668000000000006, , 25, 30, 1, , 6, 22.197884186649116, 1, 1, 1, 1.07762362835, 40, Why kill germs?,  Avoid diseases., 2, 31.662000000000006, 31.662000000000006, 0, 28, 28, 28, 2000, 1, 1, 0.01, fmri_v320180222085601, 40, Thu Feb 22 2018 13:49:35 GMT-0800 (PST), stroop, 60, , , , , , , 0, -1, -1, 0, 2000, 29, R, 0, 0.01333521432163324, 0.01333521432163324, , 2.4401975206, 31.664999999999992, 31.668000000000006, , 25, 30, 1, , 6, 22.197884186649116, 1, 1, 1, 1.07762362835, 40, Why kill germs?,  Avoid diseases., 2, 31.662000000000006, 31.662000000000006, 0, 28, 28, 28, 2000, 1, 1, 0.01, fmri_v320180222085601, 40, Thu Feb 22 2018 13:49:35 GMT-0800 (PST), stroop, 60
, , , , , , , , , , 0, -1, -1, 0, 2000, 30, L, 0, 0.01333521432163324, 0.01333521432163324, , 2.07541150401, 31.671999999999997, 31.67500000000001, , 25, 30, 1, , 4, 19.797884186649128, 1, 1, 1, 2.89977372077, 4, Why dress formally?,  Get a promotion., 2, 31.66900000000001, 31.670999999999992, 0, 29, 29, 29, 2000, 1, 1, 0.01, fmri_v320180222085601, 40, Thu Feb 22 2018 13:49:35 GMT-0800 (PST), stroop, 60, , , , , , , 0, -1, -1, 0, 2000, 30, L, 0, 0.01333521432163324, 0.01333521432163324, , 2.07541150401, 31.671999999999997, 31.67500000000001, , 25, 30, 1, , 4, 19.797884186649128, 1, 1, 1, 2.89977372077, 4, Why dress formally?,  Get a promotion., 2, 31.66900000000001, 31.670999999999992, 0, 29, 29, 29, 2000, 1, 1, 0.01, fmri_v320180222085601, 40, Thu Feb 22 2018 13:49:35 GMT-0800 (PST), stroop, 60
, , , , , , , , , , 0, -1, -1, 0, 2000, 31, R, 0, 0.01333521432163324, 0.01333521432163324, , 1.65547106168, 31.677999999999997, 31.680000000000007, , 25, 30, 1, , 5, 20.997884186649113, 1, 1, 1, 2.90491499311, 57, Why use a brush?,  Paint a picture., 1, 31.67500000000001, 31.67500000000001, 0, 30, 30, 30, 2000, 1, 1, 0.01, fmri_v320180222085601, 40, Thu Feb 22 2018 13:49:35 GMT-0800 (PST), stroop, 60, , , , , , , 0, -1, -1, 0, 2000, 31, R, 0, 0.01333521432163324, 0.01333521432163324, , 1.65547106168, 31.677999999999997, 31.680000000000007, , 25, 30, 1, , 5, 20.997884186649113, 1, 1, 1, 2.90491499311, 57, Why use a brush?,  Paint a picture., 1, 31.67500000000001, 31.67500000000001, 0, 30, 30, 30, 2000, 1, 1, 0.01, fmri_v320180222085601, 40, Thu Feb 22 2018 13:49:35 GMT-0800 (PST), stroop, 60
, , , , , , , , , , 0, -1, -1, 0, 2000, 32, L, 0, 0.01333521432163324, 0.01333521432163324, , 1.20153456362, 31.68100000000001, 31.682000000000016, , 25, 30, 1, , 3, 18.59788418664912, 1, 1, 1, 2.30738312596, 56, Why crack eggs?,  Make breakfast., 1, 31.680000000000007, 31.68100000000001, 0, 31, 31, 31, 2000, 1, 1, 0.01, fmri_v320180222085601, 40, Thu Feb 22 2018 13:49:35 GMT-0800 (PST), stroop, 60, , , , , , , 0, -1, -1, 0, 2000, 32, L, 0, 0.01333521432163324, 0.01333521432163324, , 1.20153456362, 31.68100000000001, 31.682000000000016, , 25, 30, 1, , 3, 18.59788418664912, 1, 1, 1, 2.30738312596, 56, Why crack eggs?,  Make breakfast., 1, 31.680000000000007, 31.68100000000001, 0, 31, 31, 31, 2000, 1, 1, 0.01, fmri_v320180222085601, 40, Thu Feb 22 2018 13:49:35 GMT-0800 (PST), stroop, 60
, , , , , , , , , , 0, -1, -1, 0, 2000, 33, R, 0, 0.01333521432163324, 0.01333521432163324, , 1.07715336233, 31.683999999999997, 31.685000000000002, , 25, 30, 1, , 5, 20.997884186649113, 1, 1, 1, 1.88368428635, 58, How to spread knowledge?,  Teach others., 6, 31.682999999999993, 31.682999999999993, 0, 32, 32, 32, 2000, 1, 1, 0.01, fmri_v320180222085601, 40, Thu Feb 22 2018 13:49:35 GMT-0800 (PST), stroop, 60, , , , , , , 0, -1, -1, 0, 2000, 33, R, 0, 0.01333521432163324, 0.01333521432163324, , 1.07715336233, 31.683999999999997, 31.685000000000002, , 25, 30, 1, , 5, 20.997884186649113, 1, 1, 1, 1.88368428635, 58, How to spread knowledge?,  Teach others., 6, 31.682999999999993, 31.682999999999993, 0, 32, 32, 32, 2000, 1, 1, 0.01, fmri_v320180222085601, 40, Thu Feb 22 2018 13:49:35 GMT-0800 (PST), stroop, 60
, , , , , , , , , , 0, -1, -1, 0, 2000, 34, L, 0, 0.01333521432163324, 0.01333521432163324, , 1.902036098, 31.687000000000012, 31.689999999999998, , 25, 30, 1, , 9, 25.79788418664911, 1, 1, 1, 1.14245816771, 49, How to achieve success?,  Get a promotion., 6, 31.685000000000002, 31.685000000000002, 0, 33, 33, 33, 2000, 1, 1, 0.01, fmri_v320180222085601, 40, Thu Feb 22 2018 13:49:35 GMT-0800 (PST), stroop, 60, , , , , , , 0, -1, -1, 0, 2000, 34, L, 0, 0.01333521432163324, 0.01333521432163324, , 1.902036098, 31.687000000000012, 31.689999999999998, , 25, 30, 1, , 9, 25.79788418664911, 1, 1, 1, 1.14245816771, 49, How to achieve success?,  Get a promotion., 6, 31.685000000000002, 31.685000000000002, 0, 33, 33, 33, 2000, 1, 1, 0.01, fmri_v320180222085601, 40, Thu Feb 22 2018 13:49:35 GMT-0800 (PST), stroop, 60
, , , , , , , , , , 0, -1, -1, 0, 2000, 35, R, 0, 0.01333521432163324, 0.01333521432163324, , 3.57480686703, 31.694999999999993, 31.699000000000012, , 25, 30, 1, , 3, 18.59788418664912, 1, 1, 1, 3.10716717018, 31, How to avoid diseases?,  Kill germs., 5, 31.691000000000003, 31.692000000000007, 0, 34, 34, 34, 2000, 1, 1, 0.01, fmri_v320180222085601, 40, Thu Feb 22 2018 13:49:35 GMT-0800 (PST), stroop, 60, , , , , , , 0, -1, -1, 0, 2000, 35, R, 0, 0.01333521432163324, 0.01333521432163324, , 3.57480686703, 31.694999999999993, 31.699000000000012, , 25, 30, 1, , 3, 18.59788418664912, 1, 1, 1, 3.10716717018, 31, How to avoid diseases?,  Kill germs., 5, 31.691000000000003, 31.692000000000007, 0, 34, 34, 34, 2000, 1, 1, 0.01, fmri_v320180222085601, 40, Thu Feb 22 2018 13:49:35 GMT-0800 (PST), stroop, 60
, , , , , , , , , , 0, -1, -1, 0, 2000, 36, L, 0, 0.01333521432163324, 0.01333521432163324, , 1.74527248203, 31.703000000000003, 31.705000000000013, , 25, 30, 1, , 1, 16.197884186649116, 1, 1, 1, 1.4775185621, 5, How to express doubt?,  Use scissors., 5, 31.700999999999993, 31.701999999999998, 0, 35, 35, 35, 2000, 1, 1, 0.01, fmri_v320180222085601, 40, Thu Feb 22 2018 13:49:35 GMT-0800 (PST), stroop, 60, , , , , , , 0, -1, -1, 0, 2000, 36, L, 0, 0.01333521432163324, 0.01333521432163324, , 1.74527248203, 31.703000000000003, 31.705000000000013, , 25, 30, 1, , 1, 16.197884186649116, 1, 1, 1, 1.4775185621, 5, How to express doubt?,  Use scissors., 5, 31.700999999999993, 31.701999999999998, 0, 35, 35, 35, 2000, 1, 1, 0.01, fmri_v320180222085601, 40, Thu Feb 22 2018 13:49:35 GMT-0800 (PST), stroop, 60
, , , , , , , , , , 0, -1, -1, 0, 2000, 37, L, 0, 0.01333521432163324, 0.01333521432163324, , 1.68454304779, 31.708, 31.712000000000018, , 25, 30, 1, , 4, 19.797884186649128, 1, 1, 1, 4.91978286587, 25, Why show competence?,  Pass the time., 3, 31.706000000000017, 31.706000000000017, 0, 36, 36, 36, 2000, 1, 1, 0.01, fmri_v320180222085601, 40, Thu Feb 22 2018 13:49:35 GMT-0800 (PST), stroop, 60, , , , , , , 0, -1, -1, 0, 2000, 37, L, 0, 0.01333521432163324, 0.01333521432163324, , 1.68454304779, 31.708, 31.712000000000018, , 25, 30, 1, , 4, 19.797884186649128, 1, 1, 1, 4.91978286587, 25, Why show competence?,  Pass the time., 3, 31.706000000000017, 31.706000000000017, 0, 36, 36, 36, 2000, 1, 1, 0.01, fmri_v320180222085601, 40, Thu Feb 22 2018 13:49:35 GMT-0800 (PST), stroop, 60
, , , , , , , , , , 0, -1, -1, 0, 2000, 38, R, 0, 0.01333521432163324, 0.01333521432163324, , 2.08917815069, 31.730999999999995, 31.733000000000004, , 25, 30, 1, , 8, 24.597884186649107, 1, 1, 1, 1.12802962431, 54, Why build muscles?,  Show humility., 3, 31.729000000000013, 31.729000000000013, 0, 37, 37, 37, 2000, 1, 1, 0.01, fmri_v320180222085601, 40, Thu Feb 22 2018 13:49:35 GMT-0800 (PST), stroop, 60, , , , , , , 0, -1, -1, 0, 2000, 38, R, 0, 0.01333521432163324, 0.01333521432163324, , 2.08917815069, 31.730999999999995, 31.733000000000004, , 25, 30, 1, , 8, 24.597884186649107, 1, 1, 1, 1.12802962431, 54, Why build muscles?,  Show humility., 3, 31.729000000000013, 31.729000000000013, 0, 37, 37, 37, 2000, 1, 1, 0.01, fmri_v320180222085601, 40, Thu Feb 22 2018 13:49:35 GMT-0800 (PST), stroop, 60
, , , , , , , , , , 0, -1, -1, 0, 2000, 39, L, 0.04099999999999682, 0.01333521432163324, 0.01333521432163324, , 2.8542756704, 31.77600000000001, 31.80000000000001, , 25, 30, 1, , 7, 23.39788418664912, 1, 1, 1, 1.40811786158, 37, How to teach others?,  Give a lecture., 5, 31.733000000000004, 31.733000000000004, 0, 38, 38, 38, 2000, 1, 1, 0.01, fmri_v320180222085601, 40, Thu Feb 22 2018 13:49:35 GMT-0800 (PST), stroop, 60, , , , , , , 0, -1, -1, 0, 2000, 39, L, 0.04099999999999682, 0.01333521432163324, 0.01333521432163324, , 2.8542756704, 31.77600000000001, 31.80000000000001, , 25, 30, 1, , 7, 23.39788418664912, 1, 1, 1, 1.40811786158, 37, How to teach others?,  Give a lecture., 5, 31.733000000000004, 31.733000000000004, 0, 38, 38, 38, 2000, 1, 1, 0.01, fmri_v320180222085601, 40, Thu Feb 22 2018 13:49:35 GMT-0800 (PST), stroop, 60
, , , , , , , , , , 0, -1, -1, 0, 2000, 40, R, 0, 0.01333521432163324, 0.01333521432163324, , 2.4373137281, 31.804000000000002, 31.804000000000002, , 25, 30, 1, , 6, 22.197884186649116, 1, 1, 1, 1.21018674318, 16, How to entertain others?,  Write a song., 5, 31.801000000000016, 31.801999999999992, 0, 39, 39, 39, 2000, 1, 1, 0.01, fmri_v320180222085601, 40, Thu Feb 22 2018 13:49:35 GMT-0800 (PST), stroop, 60, , , , , , , 0, -1, -1, 0, 2000, 40, R, 0, 0.01333521432163324, 0.01333521432163324, , 2.4373137281, 31.804000000000002, 31.804000000000002, , 25, 30, 1, , 6, 22.197884186649116, 1, 1, 1, 1.21018674318, 16, How to entertain others?,  Write a song., 5, 31.801000000000016, 31.801999999999992, 0, 39, 39, 39, 2000, 1, 1, 0.01, fmri_v320180222085601, 40, Thu Feb 22 2018 13:49:35 GMT-0800 (PST), stroop, 60
, , , , , , , , , , 0, -1, -1, 0, 2000, 41, L, 0.0009999999999763531, 0.01333521432163324, 0.01333521432163324, , 1.03953366771, 31.813999999999993, 31.825999999999993, , 25, 30, 1, , 3, 18.59788418664912, 1, 1, 1, 1.90841479532, 59, How to show humility?,  Build muscles., 6, 31.80600000000001, 31.807000000000016, 0, 40, 40, 40, 2000, 1, 1, 0.01, fmri_v320180222085601, 40, Thu Feb 22 2018 13:49:35 GMT-0800 (PST), stroop, 60, , , , , , , 0, -1, -1, 0, 2000, 41, L, 0.0009999999999763531, 0.01333521432163324, 0.01333521432163324, , 1.03953366771, 31.813999999999993, 31.825999999999993, , 25, 30, 1, , 3, 18.59788418664912, 1, 1, 1, 1.90841479532, 59, How to show humility?,  Build muscles., 6, 31.80600000000001, 31.807000000000016, 0, 40, 40, 40, 2000, 1, 1, 0.01, fmri_v320180222085601, 40, Thu Feb 22 2018 13:49:35 GMT-0800 (PST), stroop, 60
, , , , , , , , , , 0, -1, -1, 0, 2000, 42, R, 0, 0.01333521432163324, 0.01333521432163324, , 2.14024394299, 31.831000000000017, 31.833, , 25, 30, 1, , 8, 24.597884186649107, 1, 1, 1, 1.85273328791, 24, How to express a talent?,  Entertain others., 6, 31.826999999999998, 31.829000000000008, 0, 41, 41, 41, 2000, 1, 1, 0.01, fmri_v320180222085601, 40, Thu Feb 22 2018 13:49:35 GMT-0800 (PST), stroop, 60, , , , , , , 0, -1, -1, 0, 2000, 42, R, 0, 0.01333521432163324, 0.01333521432163324, , 2.14024394299, 31.831000000000017, 31.833, , 25, 30, 1, , 8, 24.597884186649107, 1, 1, 1, 1.85273328791, 24, How to express a talent?,  Entertain others., 6, 31.826999999999998, 31.829000000000008, 0, 41, 41, 41, 2000, 1, 1, 0.01, fmri_v320180222085601, 40, Thu Feb 22 2018 13:49:35 GMT-0800 (PST), stroop, 60
, , , , , , , , , , 0, -1, -1, 0, 2000, 43, L, 0, 0.01333521432163324, 0.01333521432163324, , 1.5155090027, 31.836000000000013, 31.837000000000018, , 25, 30, 1, , 6, 22.197884186649116, 1, 1, 1, 1.38474010867, 33, Why drink coffee?,  Consume caffeine., 1, 31.834000000000003, 31.835000000000008, 0, 42, 42, 42, 2000, 1, 1, 0.01, fmri_v320180222085601, 40, Thu Feb 22 2018 13:49:35 GMT-0800 (PST), stroop, 60, , , , , , , 0, -1, -1, 0, 2000, 43, L, 0, 0.01333521432163324, 0.01333521432163324, , 1.5155090027, 31.836000000000013, 31.837000000000018, , 25, 30, 1, , 6, 22.197884186649116, 1, 1, 1, 1.38474010867, 33, Why drink coffee?,  Consume caffeine., 1, 31.834000000000003, 31.835000000000008, 0, 42, 42, 42, 2000, 1, 1, 0.01, fmri_v320180222085601, 40, Thu Feb 22 2018 13:49:35 GMT-0800 (PST), stroop, 60
, , , , , , , , , , 0, -1, -1, 0, 2000, 44, R, 0, 0.01333521432163324, 0.01333521432163324, , 2.53654010349, 31.843000000000018, 31.86099999999999, , 25, 30, 1, , 9, 25.79788418664911, 1, 1, 1, 3.12261389386, 50, Why open a bottle?,  Consume medicine., 1, 31.839, 31.840000000000003, 0, 43, 43, 43, 2000, 1, 1, 0.01, fmri_v320180222085601, 40, Thu Feb 22 2018 13:49:35 GMT-0800 (PST), stroop, 60, , , , , , , 0, -1, -1, 0, 2000, 44, R, 0, 0.01333521432163324, 0.01333521432163324, , 2.53654010349, 31.843000000000018, 31.86099999999999, , 25, 30, 1, , 9, 25.79788418664911, 1, 1, 1, 3.12261389386, 50, Why open a bottle?,  Consume medicine., 1, 31.839, 31.840000000000003, 0, 43, 43, 43, 2000, 1, 1, 0.01, fmri_v320180222085601, 40, Thu Feb 22 2018 13:49:35 GMT-0800 (PST), stroop, 60
, , , , , , , , , , 0, -1, -1, 0, 2000, 45, R, 0, 0.01333521432163324, 0.01333521432163324, , 2.68819971102, 31.86699999999999, 31.88499999999999, , 25, 30, 1, , 4, 19.797884186649128, 1, 1, 1, 1.46861760972, 17, Why participate in class?,  Show intelligence., 2, 31.864000000000004, 31.86500000000001, 0, 44, 44, 44, 2000, 1, 1, 0.01, fmri_v320180222085601, 40, Thu Feb 22 2018 13:49:35 GMT-0800 (PST), stroop, 60, , , , , , , 0, -1, -1, 0, 2000, 45, R, 0, 0.01333521432163324, 0.01333521432163324, , 2.68819971102, 31.86699999999999, 31.88499999999999, , 25, 30, 1, , 4, 19.797884186649128, 1, 1, 1, 1.46861760972, 17, Why participate in class?,  Show intelligence., 2, 31.864000000000004, 31.86500000000001, 0, 44, 44, 44, 2000, 1, 1, 0.01, fmri_v320180222085601, 40, Thu Feb 22 2018 13:49:35 GMT-0800 (PST), stroop, 60
, , , , , , , , , , 0, -1, -1, 0, 2000, 46, R, 0, 0.01333521432163324, 0.01333521432163324, , 1.31291611931, 31.888000000000005, 31.890000000000015, , 25, 30, 1, , 7, 23.39788418664912, 1, 1, 1, 1.99139253335, 29, Why go shopping?,  Make a purchase., 2, 31.887, 31.887, 0, 45, 45, 45, 2000, 1, 1, 0.01, fmri_v320180222085601, 40, Thu Feb 22 2018 13:49:35 GMT-0800 (PST), stroop, 60, , , , , , , 0, -1, -1, 0, 2000, 46, R, 0, 0.01333521432163324, 0.01333521432163324, , 1.31291611931, 31.888000000000005, 31.890000000000015, , 25, 30, 1, , 7, 23.39788418664912, 1, 1, 1, 1.99139253335, 29, Why go shopping?,  Make a purchase., 2, 31.887, 31.887, 0, 45, 45, 45, 2000, 1, 1, 0.01, fmri_v320180222085601, 40, Thu Feb 22 2018 13:49:35 GMT-0800 (PST), stroop, 60
, , , , , , , , , , 0, -1, -1, 0, 2000, 47, L, 0.0010000000000047748, 0.01333521432163324, 0.01333521432163324, , 2.29387696997, 31.912000000000006, 31.914000000000016, , 25, 30, 1, , 5, 20.997884186649113, 1, 1, 1, 1.80338688034, 38, How to lift weights?,  Fasten seatbelt., 4, 31.909999999999997, 31.909999999999997, 0, 46, 46, 46, 2000, 1, 1, 0.01, fmri_v320180222085601, 40, Thu Feb 22 2018 13:49:35 GMT-0800 (PST), stroop, 60, , , , , , , 0, -1, -1, 0, 2000, 47, L, 0.0010000000000047748, 0.01333521432163324, 0.01333521432163324, , 2.29387696997, 31.912000000000006, 31.914000000000016, , 25, 30, 1, , 5, 20.997884186649113, 1, 1, 1, 1.80338688034, 38, How to lift weights?,  Fasten seatbelt., 4, 31.909999999999997, 31.909999999999997, 0, 46, 46, 46, 2000, 1, 1, 0.01, fmri_v320180222085601, 40, Thu Feb 22 2018 13:49:35 GMT-0800 (PST), stroop, 60
, , , , , , , , , , 0, -1, -1, 0, 2000, 48, L, 0, 0.01333521432163324, 0.01333521432163324, , 1.49038831523, 31.935000000000002, 31.937000000000012, , 25, 30, 1, , 1, 16.197884186649116, 1, 1, 1, 1.02862906434, 39, How to write a check?,  Sign ones name., 4, 31.917, 31.91900000000001, 0, 47, 47, 47, 2000, 1, 1, 0.01, fmri_v320180222085601, 40, Thu Feb 22 2018 13:49:35 GMT-0800 (PST), stroop, 60, , , , , , , 0, -1, -1, 0, 2000, 48, L, 0, 0.01333521432163324, 0.01333521432163324, , 1.49038831523, 31.935000000000002, 31.937000000000012, , 25, 30, 1, , 1, 16.197884186649116, 1, 1, 1, 1.02862906434, 39, How to write a check?,  Sign ones name., 4, 31.917, 31.91900000000001, 0, 47, 47, 47, 2000, 1, 1, 0.01, fmri_v320180222085601, 40, Thu Feb 22 2018 13:49:35 GMT-0800 (PST), stroop, 60
, , , , , , , , , , 0, -1, -1, 0, 2000, 49, R, 0, 0.01333521432163324, 0.01333521432163324, , 1.71358140518, 31.938999999999993, 31.939999999999998, , 25, 30, 1, , 7, 23.39788418664912, 1, 1, 1, 2.6513409533, 9, How to get a promotion?,  Arrive on time., 5, 31.938000000000017, 31.938000000000017, 0, 48, 48, 48, 2000, 1, 1, 0.01, fmri_v320180222085601, 40, Thu Feb 22 2018 13:49:35 GMT-0800 (PST), stroop, 60, , , , , , , 0, -1, -1, 0, 2000, 49, R, 0, 0.01333521432163324, 0.01333521432163324, , 1.71358140518, 31.938999999999993, 31.939999999999998, , 25, 30, 1, , 7, 23.39788418664912, 1, 1, 1, 2.6513409533, 9, How to get a promotion?,  Arrive on time., 5, 31.938000000000017, 31.938000000000017, 0, 48, 48, 48, 2000, 1, 1, 0.01, fmri_v320180222085601, 40, Thu Feb 22 2018 13:49:35 GMT-0800 (PST), stroop, 60
, , , , , , , , , , 0, -1, -1, 0, 2000, 50, R, 0, 0.01333521432163324, 0.01333521432163324, , 1.86789966369, 31.941000000000003, 31.942000000000007, , 25, 30, 1, , 6, 22.197884186649116, 1, 1, 1, 1.05310775405, 44, How to show ambition?,  Serve alcohol., 5, 31.941000000000003, 31.941000000000003, 0, 49, 49, 49, 2000, 1, 1, 0.01, fmri_v320180222085601, 40, Thu Feb 22 2018 13:49:35 GMT-0800 (PST), stroop, 60, , , , , , , 0, -1, -1, 0, 2000, 50, R, 0, 0.01333521432163324, 0.01333521432163324, , 1.86789966369, 31.941000000000003, 31.942000000000007, , 25, 30, 1, , 6, 22.197884186649116, 1, 1, 1, 1.05310775405, 44, How to show ambition?,  Serve alcohol., 5, 31.941000000000003, 31.941000000000003, 0, 49, 49, 49, 2000, 1, 1, 0.01, fmri_v320180222085601, 40, Thu Feb 22 2018 13:49:35 GMT-0800 (PST), stroop, 60
, , , , , , , , , , 0, -1, -1, 0, 2000, 51, R, 0, 0.01333521432163324, 0.01333521432163324, , 3.9541802598, 31.965000000000003, 31.973000000000013, , 25, 30, 1, , 3, 18.59788418664912, 1, 1, 1, 1.88817616701, 1, How to impress others?,  Show intelligence., 6, 31.944000000000017, 31.944000000000017, 0, 50, 50, 50, 2000, 1, 1, 0.01, fmri_v320180222085601, 40, Thu Feb 22 2018 13:49:35 GMT-0800 (PST), stroop, 60, , , , , , , 0, -1, -1, 0, 2000, 51, R, 0, 0.01333521432163324, 0.01333521432163324, , 3.9541802598, 31.965000000000003, 31.973000000000013, , 25, 30, 1, , 3, 18.59788418664912, 1, 1, 1, 1.88817616701, 1, How to impress others?,  Show intelligence., 6, 31.944000000000017, 31.944000000000017, 0, 50, 50, 50, 2000, 1, 1, 0.01, fmri_v320180222085601, 40, Thu Feb 22 2018 13:49:35 GMT-0800 (PST), stroop, 60
, , , , , , , , , , 0, -1, -1, 0, 2000, 52, L, 0, 0.01333521432163324, 0.01333521432163324, , 1.60797874523, 31.97800000000001, 31.982, , 25, 30, 1, , 2, 17.397884186649105, 1, 1, 1, 3.33654899676, 21, How to feel productive?,  Finish a job., 6, 31.974999999999994, 31.977000000000004, 0, 51, 51, 51, 2000, 1, 1, 0.01, fmri_v320180222085601, 40, Thu Feb 22 2018 13:49:35 GMT-0800 (PST), stroop, 60, , , , , , , 0, -1, -1, 0, 2000, 52, L, 0, 0.01333521432163324, 0.01333521432163324, , 1.60797874523, 31.97800000000001, 31.982, , 25, 30, 1, , 2, 17.397884186649105, 1, 1, 1, 3.33654899676, 21, How to feel productive?,  Finish a job., 6, 31.974999999999994, 31.977000000000004, 0, 51, 51, 51, 2000, 1, 1, 0.01, fmri_v320180222085601, 40, Thu Feb 22 2018 13:49:35 GMT-0800 (PST), stroop, 60
, , , , , , , , , , 0, -1, -1, 0, 2000, 53, L, 0, 0.01333521432163324, 0.01333521432163324, , 1.64003449034, 31.989000000000004, 31.991000000000014, , 25, 30, 1, , 8, 24.597884186649107, 1, 1, 1, 1.7830036391, 15, How to consume medicine?,  Take pills. , 4, 31.988, 31.989000000000004, 0, 52, 52, 52, 2000, 1, 1, 0.01, fmri_v320180222085601, 40, Thu Feb 22 2018 13:49:35 GMT-0800 (PST), stroop, 60, , , , , , , 0, -1, -1, 0, 2000, 53, L, 0, 0.01333521432163324, 0.01333521432163324, , 1.64003449034, 31.989000000000004, 31.991000000000014, , 25, 30, 1, , 8, 24.597884186649107, 1, 1, 1, 1.7830036391, 15, How to consume medicine?,  Take pills. , 4, 31.988, 31.989000000000004, 0, 52, 52, 52, 2000, 1, 1, 0.01, fmri_v320180222085601, 40, Thu Feb 22 2018 13:49:35 GMT-0800 (PST), stroop, 60
, , , , , , , , , , 0, -1, -1, 0, 2000, 54, L, 0, 0.01333521432163324, 0.01333521432163324, , 1.92598480374, 31.99199999999999, 31.992999999999995, , 25, 30, 1, , 9, 25.79788418664911, 1, 1, 1, 1.49163302789, 55, How to dress formally?,  Wear ties. , 4, 31.991000000000014, 31.99199999999999, 0, 53, 53, 53, 2000, 1, 1, 0.01, fmri_v320180222085601, 40, Thu Feb 22 2018 13:49:35 GMT-0800 (PST), stroop, 60, , , , , , , 0, -1, -1, 0, 2000, 54, L, 0, 0.01333521432163324, 0.01333521432163324, , 1.92598480374, 31.99199999999999, 31.992999999999995, , 25, 30, 1, , 9, 25.79788418664911, 1, 1, 1, 1.49163302789, 55, How to dress formally?,  Wear ties. , 4, 31.991000000000014, 31.99199999999999, 0, 53, 53, 53, 2000, 1, 1, 0.01, fmri_v320180222085601, 40, Thu Feb 22 2018 13:49:35 GMT-0800 (PST), stroop, 60
, , , , , , , , , , 0, -1, -1, 0, 2000, 55, R, 0, 0.01333521432163324, 0.01333521432163324, , 1.18460529027, 32, 32.00200000000001, , 25, 30, 1, , 5, 20.997884186649113, 1, 1, 1, 1.65077873844, 26, Why teach a class?,  Obey laws., 2, 31.99600000000001, 31.997000000000014, 0, 54, 54, 54, 2000, 1, 1, 0.01, fmri_v320180222085601, 40, Thu Feb 22 2018 13:49:35 GMT-0800 (PST), stroop, 60, , , , , , , 0, -1, -1, 0, 2000, 55, R, 0, 0.01333521432163324, 0.01333521432163324, , 1.18460529027, 32, 32.00200000000001, , 25, 30, 1, , 5, 20.997884186649113, 1, 1, 1, 1.65077873844, 26, Why teach a class?,  Obey laws., 2, 31.99600000000001, 31.997000000000014, 0, 54, 54, 54, 2000, 1, 1, 0.01, fmri_v320180222085601, 40, Thu Feb 22 2018 13:49:35 GMT-0800 (PST), stroop, 60
, , , , , , , , , , 0, -1, -1, 0, 2000, 56, L, 0.0010000000000047748, 0.01333521432163324, 0.01333521432163324, , 1.46616568875, 32.006, 32.01400000000001, , 25, 30, 1, , 1, 16.197884186649116, 1, 1, 1, 1.10385460874, 51, Why make a phone call?,  Contact a friend., 2, 32.003000000000014, 32.00399999999999, 0, 55, 55, 55, 2000, 1, 1, 0.01, fmri_v320180222085601, 40, Thu Feb 22 2018 13:49:35 GMT-0800 (PST), stroop, 60, , , , , , , 0, -1, -1, 0, 2000, 56, L, 0.0010000000000047748, 0.01333521432163324, 0.01333521432163324, , 1.46616568875, 32.006, 32.01400000000001, , 25, 30, 1, , 1, 16.197884186649116, 1, 1, 1, 1.10385460874, 51, Why make a phone call?,  Contact a friend., 2, 32.003000000000014, 32.00399999999999, 0, 55, 55, 55, 2000, 1, 1, 0.01, fmri_v320180222085601, 40, Thu Feb 22 2018 13:49:35 GMT-0800 (PST), stroop, 60
, , , , , , , , , , 0, -1, -1, 0, 2000, 57, L, 0, 0.01333521432163324, 0.01333521432163324, , 3.23597943714, 32.018, 32.019000000000005, , 25, 30, 1, , 6, 22.197884186649116, 1, 1, 1, 3.37905604909, 14, Why use a remote?,  Watch television., 1, 32.015000000000015, 32.01599999999999, 0, 56, 56, 56, 2000, 1, 1, 0.01, fmri_v320180222085601, 40, Thu Feb 22 2018 13:49:35 GMT-0800 (PST), stroop, 60, , , , , , , 0, -1, -1, 0, 2000, 57, L, 0, 0.01333521432163324, 0.01333521432163324, , 3.23597943714, 32.018, 32.019000000000005, , 25, 30, 1, , 6, 22.197884186649116, 1, 1, 1, 3.37905604909, 14, Why use a remote?,  Watch television., 1, 32.015000000000015, 32.01599999999999, 0, 56, 56, 56, 2000, 1, 1, 0.01, fmri_v320180222085601, 40, Thu Feb 22 2018 13:49:35 GMT-0800 (PST), stroop, 60
, , , , , , , , , , 0, -1, -1, 0, 2000, 58, R, 0, 0.01333521432163324, 0.01333521432163324, , 1.63405092229, 32.02199999999999, 32.024, , 25, 30, 1, , 1, 16.197884186649116, 1, 1, 1, 1.23600221442, 11, Why click a mouse?,  Open a browser., 1, 32.02000000000001, 32.021000000000015, 0, 57, 57, 57, 2000, 1, 1, 0.01, fmri_v320180222085601, 40, Thu Feb 22 2018 13:49:35 GMT-0800 (PST), stroop, 60, , , , , , , 0, -1, -1, 0, 2000, 58, R, 0, 0.01333521432163324, 0.01333521432163324, , 1.63405092229, 32.02199999999999, 32.024, , 25, 30, 1, , 1, 16.197884186649116, 1, 1, 1, 1.23600221442, 11, Why click a mouse?,  Open a browser., 1, 32.02000000000001, 32.021000000000015, 0, 57, 57, 57, 2000, 1, 1, 0.01, fmri_v320180222085601, 40, Thu Feb 22 2018 13:49:35 GMT-0800 (PST), stroop, 60
, , , , , , , , , , 0, -1, -1, 0, 2000, 59, R, 0, 0.01333521432163324, 0.01333521432163324, , 1.42796251117, 32.028999999999996, 32.031000000000006, , 25, 30, 1, , 5, 20.997884186649113, 1, 1, 1, 1.4321039969, 7, Why avoid diseases?,  Live a long life., 3, 32.025000000000006, 32.025000000000006, 0, 58, 58, 58, 2000, 1, 1, 0.01, fmri_v320180222085601, 40, Thu Feb 22 2018 13:49:35 GMT-0800 (PST), stroop, 60, , , , , , , 0, -1, -1, 0, 2000, 59, R, 0, 0.01333521432163324, 0.01333521432163324, , 1.42796251117, 32.028999999999996, 32.031000000000006, , 25, 30, 1, , 5, 20.997884186649113, 1, 1, 1, 1.4321039969, 7, Why avoid diseases?,  Live a long life., 3, 32.025000000000006, 32.025000000000006, 0, 58, 58, 58, 2000, 1, 1, 0.01, fmri_v320180222085601, 40, Thu Feb 22 2018 13:49:35 GMT-0800 (PST), stroop, 60
, , , , , , , , , , 0, -1, -1, 0, 2000, 60, L, 0, 0.01333521432163324, 0.01333521432163324, , 2.20893094768, 32.035, 32.036, , 25, 30, 1, , 9, 25.79788418664911, 1, 1, 1, 4.61563859956, 18, Why show intelligence?,  Impress others., 3, 32.033000000000015, 32.03399999999999, 0, 59, 59, 59, 2000, 1, 1, 0.01, fmri_v320180222085601, 40, Thu Feb 22 2018 13:49:35 GMT-0800 (PST), stroop, 60, , , , , , , 0, -1, -1, 0, 2000, 60, L, 0, 0.01333521432163324, 0.01333521432163324, , 2.20893094768, 32.035, 32.036, , 25, 30, 1, , 9, 25.79788418664911, 1, 1, 1, 4.61563859956, 18, Why show intelligence?,  Impress others., 3, 32.033000000000015, 32.03399999999999, 0, 59, 59, 59, 2000, 1, 1, 0.01, fmri_v320180222085601, 40, Thu Feb 22 2018 13:49:35 GMT-0800 (PST), stroop, 60
